individual_punho,ambos_punhos_pes,instructions1,instructions2,trials.thisRepN,trials.thisTrialN,trials.thisN,trials.thisIndex,trials_3.thisRepN,trials_3.thisTrialN,trials_3.thisN,trials_3.thisIndex,imageryTrials.thisRepN,imageryTrials.thisTrialN,imageryTrials.thisN,imageryTrials.thisIndex,trials_4.thisRepN,trials_4.thisTrialN,trials_4.thisN,trials_4.thisIndex,imageryTrials2.thisRepN,imageryTrials2.thisTrialN,imageryTrials2.thisN,imageryTrials2.thisIndex,textWelcomeMessage.started,textBlank200.started,textOrientationMessage.started,keyWelcome.started,keyWelcome.keys,keyWelcome.rt,polygon_start.started,polygon_start.stopped,textrest.started,polygon_rest.started,polygonDE.started,image.started,textOrientationMessage2.started,keyOrientation2Message.started,keyOrientation2Message.keys,keyOrientation2Message.rt,polygonPP.started,image_2.started,participant,session,name,date,expName,psychopyVersion,frameRate,
Imagens/right.png,Imagens/up.png,"Vais fechar e abrir o punho direito ou esquerdo, mediante te apareça as setas "Direita" ou "Esquerda". Pressione a barra do ESPAÇO para começar.","Vais fechar e abrir ambos os punhos ou os pés, mediante te apareçam as setas "Para cima" ou "Para baixo", respetivamente. Pressione a barra do ESPAÇO para começar.",0,0,0,0,0,0,0,0,0,0,0,0,,,,,,,,,46.96733529999619,48.917933400021866,49.13821659999667,49.13821659999667,space,4.647103200026322,53.80708170001162,54.809893500001635,54.809893500001635,54.809893500001635,58.838141400017776,58.838141400017776,,,,,,,01,001,Miguel,2023-05-03_16h07.02.873,Motor Imagery,2022.2.5,59.80206712180891,
Imagens/left.png,Imagens/down.png,"Vais imaginar o movimento de fechar e abrir o punho direito ou esquerdo, mediante te apareça as setas "Direita" ou "Esquerda". Pressione a barra do ESPAÇO para começar.","Vais imaginar o movimento de fechar e abrir ambos os punhos ou os pés, mediante te apareçam "Para cima" ou "Para baixo", respetivamente.  Pressione a barra do ESPAÇO para começar.",0,0,0,0,0,0,0,0,0,1,1,1,,,,,,,,,,,,,,,,,62.817136500030756,62.817136500030756,67.05483139998978,67.05483139998978,,,,,,,01,001,Miguel,2023-05-03_16h07.02.873,Motor Imagery,2022.2.5,59.80206712180891,
Imagens/left.png,Imagens/down.png,"Vais imaginar o movimento de fechar e abrir o punho direito ou esquerdo, mediante te apareça as setas "Direita" ou "Esquerda". Pressione a barra do ESPAÇO para começar.","Vais imaginar o movimento de fechar e abrir ambos os punhos ou os pés, mediante te apareçam "Para cima" ou "Para baixo", respetivamente.  Pressione a barra do ESPAÇO para começar.",0,0,0,0,0,0,0,0,1,0,2,1,,,,,,,,,,,,,,,,,70.82597830001032,70.82597830001032,74.98954739997862,74.98954739997862,,,,,,,01,001,Miguel,2023-05-03_16h07.02.873,Motor Imagery,2022.2.5,59.80206712180891,
Imagens/right.png,Imagens/up.png,"Vais fechar e abrir o punho direito ou esquerdo, mediante te apareça as setas "Direita" ou "Esquerda". Pressione a barra do ESPAÇO para começar.","Vais fechar e abrir ambos os punhos ou os pés, mediante te apareçam as setas "Para cima" ou "Para baixo", respetivamente. Pressione a barra do ESPAÇO para começar.",0,0,0,0,0,0,0,0,1,1,3,0,,,,,,,,,,,,,,,,,78.81886370002758,78.81886370002758,82.940055700019,82.940055700019,,,,,,,01,001,Miguel,2023-05-03_16h07.02.873,Motor Imagery,2022.2.5,59.80206712180891,
Imagens/left.png,Imagens/down.png,"Vais imaginar o movimento de fechar e abrir o punho direito ou esquerdo, mediante te apareça as setas "Direita" ou "Esquerda". Pressione a barra do ESPAÇO para começar.","Vais imaginar o movimento de fechar e abrir ambos os punhos ou os pés, mediante te apareçam "Para cima" ou "Para baixo", respetivamente.  Pressione a barra do ESPAÇO para começar.",0,0,0,0,0,0,0,0,2,0,4,1,,,,,,,,,,,,,,,,,86.81070810003439,86.81070810003439,91.0154118000064,91.0154118000064,,,,,,,01,001,Miguel,2023-05-03_16h07.02.873,Motor Imagery,2022.2.5,59.80206712180891,
Imagens/right.png,Imagens/up.png,"Vais fechar e abrir o punho direito ou esquerdo, mediante te apareça as setas "Direita" ou "Esquerda". Pressione a barra do ESPAÇO para começar.","Vais fechar e abrir ambos os punhos ou os pés, mediante te apareçam as setas "Para cima" ou "Para baixo", respetivamente. Pressione a barra do ESPAÇO para começar.",0,0,0,0,0,0,0,0,2,1,5,0,,,,,,,,,,,,,,,,,94.81985010002973,94.81985010002973,98.94121890002862,98.94121890002862,,,,,,,01,001,Miguel,2023-05-03_16h07.02.873,Motor Imagery,2022.2.5,59.80206712180891,
Imagens/right.png,Imagens/up.png,"Vais fechar e abrir o punho direito ou esquerdo, mediante te apareça as setas "Direita" ou "Esquerda". Pressione a barra do ESPAÇO para começar.","Vais fechar e abrir ambos os punhos ou os pés, mediante te apareçam as setas "Para cima" ou "Para baixo", respetivamente. Pressione a barra do ESPAÇO para começar.",0,0,0,0,0,0,0,0,3,0,6,0,,,,,,,,,,,,,,,,,102.81217649998143,102.81217649998143,106.83349560003262,106.83349560003262,,,,,,,01,001,Miguel,2023-05-03_16h07.02.873,Motor Imagery,2022.2.5,59.80206712180891,
Imagens/left.png,Imagens/down.png,"Vais imaginar o movimento de fechar e abrir o punho direito ou esquerdo, mediante te apareça as setas "Direita" ou "Esquerda". Pressione a barra do ESPAÇO para começar.","Vais imaginar o movimento de fechar e abrir ambos os punhos ou os pés, mediante te apareçam "Para cima" ou "Para baixo", respetivamente.  Pressione a barra do ESPAÇO para começar.",0,0,0,0,0,0,0,0,3,1,7,1,,,,,,,,,,,,,,,,,110.82116970000789,110.82116970000789,115.04282199998852,115.04282199998852,,,,,,,01,001,Miguel,2023-05-03_16h07.02.873,Motor Imagery,2022.2.5,59.80206712180891,
Imagens/left.png,Imagens/down.png,"Vais imaginar o movimento de fechar e abrir o punho direito ou esquerdo, mediante te apareça as setas "Direita" ou "Esquerda". Pressione a barra do ESPAÇO para começar.","Vais imaginar o movimento de fechar e abrir ambos os punhos ou os pés, mediante te apareçam "Para cima" ou "Para baixo", respetivamente.  Pressione a barra do ESPAÇO para começar.",0,0,0,0,0,0,0,0,4,0,8,1,,,,,,,,,,,,,,,,,118.81359630002407,118.81359630002407,122.99343219998991,122.99343219998991,,,,,,,01,001,Miguel,2023-05-03_16h07.02.873,Motor Imagery,2022.2.5,59.80206712180891,
Imagens/right.png,Imagens/up.png,"Vais fechar e abrir o punho direito ou esquerdo, mediante te apareça as setas "Direita" ou "Esquerda". Pressione a barra do ESPAÇO para começar.","Vais fechar e abrir ambos os punhos ou os pés, mediante te apareçam as setas "Para cima" ou "Para baixo", respetivamente. Pressione a barra do ESPAÇO para começar.",0,0,0,0,0,0,0,0,4,1,9,0,,,,,,,,,,,,,,,,,126.82290560001275,126.82290560001275,130.92731040000217,130.92731040000217,,,,,,,01,001,Miguel,2023-05-03_16h07.02.873,Motor Imagery,2022.2.5,59.80206712180891,
Imagens/left.png,Imagens/down.png,"Vais imaginar o movimento de fechar e abrir o punho direito ou esquerdo, mediante te apareça as setas "Direita" ou "Esquerda". Pressione a barra do ESPAÇO para começar.","Vais imaginar o movimento de fechar e abrir ambos os punhos ou os pés, mediante te apareçam "Para cima" ou "Para baixo", respetivamente.  Pressione a barra do ESPAÇO para começar.",0,0,0,0,0,0,0,0,5,0,10,1,,,,,,,,,,,,,,,,,134.81520750001073,134.81520750001073,139.03675299999304,139.03675299999304,,,,,,,01,001,Miguel,2023-05-03_16h07.02.873,Motor Imagery,2022.2.5,59.80206712180891,
Imagens/right.png,Imagens/up.png,"Vais fechar e abrir o punho direito ou esquerdo, mediante te apareça as setas "Direita" ou "Esquerda". Pressione a barra do ESPAÇO para começar.","Vais fechar e abrir ambos os punhos ou os pés, mediante te apareçam as setas "Para cima" ou "Para baixo", respetivamente. Pressione a barra do ESPAÇO para começar.",0,0,0,0,0,0,0,0,5,1,11,0,,,,,,,,,,,,,,,,,142.82417410000926,142.82417410000926,146.92879079998238,146.92879079998238,,,,,,,01,001,Miguel,2023-05-03_16h07.02.873,Motor Imagery,2022.2.5,59.80206712180891,
Imagens/right.png,Imagens/up.png,"Vais fechar e abrir o punho direito ou esquerdo, mediante te apareça as setas "Direita" ou "Esquerda". Pressione a barra do ESPAÇO para começar.","Vais fechar e abrir ambos os punhos ou os pés, mediante te apareçam as setas "Para cima" ou "Para baixo", respetivamente. Pressione a barra do ESPAÇO para começar.",0,0,0,0,0,0,0,0,6,0,12,0,,,,,,,,,,,,,,,,,150.816644800012,150.816644800012,154.83864309999626,154.83864309999626,,,,,,,01,001,Miguel,2023-05-03_16h07.02.873,Motor Imagery,2022.2.5,59.80206712180891,
Imagens/left.png,Imagens/down.png,"Vais imaginar o movimento de fechar e abrir o punho direito ou esquerdo, mediante te apareça as setas "Direita" ou "Esquerda". Pressione a barra do ESPAÇO para começar.","Vais imaginar o movimento de fechar e abrir ambos os punhos ou os pés, mediante te apareçam "Para cima" ou "Para baixo", respetivamente.  Pressione a barra do ESPAÇO para começar.",0,0,0,0,0,0,0,0,6,1,13,1,,,,,,,,,,,,,,,,,158.82540460000746,158.82540460000746,163.01353260001633,163.01353260001633,,,,,,,01,001,Miguel,2023-05-03_16h07.02.873,Motor Imagery,2022.2.5,59.80206712180891,
Imagens/right.png,Imagens/up.png,"Vais fechar e abrir o punho direito ou esquerdo, mediante te apareça as setas "Direita" ou "Esquerda". Pressione a barra do ESPAÇO para começar.","Vais fechar e abrir ambos os punhos ou os pés, mediante te apareçam as setas "Para cima" ou "Para baixo", respetivamente. Pressione a barra do ESPAÇO para começar.",0,0,0,0,0,0,0,0,7,0,14,0,,,,,,,,,,,,,,,,,166.81811510003172,166.81811510003172,170.93938719999278,170.93938719999278,,,,,,,01,001,Miguel,2023-05-03_16h07.02.873,Motor Imagery,2022.2.5,59.80206712180891,
Imagens/left.png,Imagens/down.png,"Vais imaginar o movimento de fechar e abrir o punho direito ou esquerdo, mediante te apareça as setas "Direita" ou "Esquerda". Pressione a barra do ESPAÇO para começar.","Vais imaginar o movimento de fechar e abrir ambos os punhos ou os pés, mediante te apareçam "Para cima" ou "Para baixo", respetivamente.  Pressione a barra do ESPAÇO para começar.",0,0,0,0,0,0,0,0,7,1,15,1,,,,,,,,,,,,,,,,,174.81041889998596,174.81041889998596,179.014856600028,179.014856600028,,,,,,,01,001,Miguel,2023-05-03_16h07.02.873,Motor Imagery,2022.2.5,59.80206712180891,
Imagens/left.png,Imagens/down.png,"Vais imaginar o movimento de fechar e abrir o punho direito ou esquerdo, mediante te apareça as setas "Direita" ou "Esquerda". Pressione a barra do ESPAÇO para começar.","Vais imaginar o movimento de fechar e abrir ambos os punhos ou os pés, mediante te apareçam "Para cima" ou "Para baixo", respetivamente.  Pressione a barra do ESPAÇO para começar.",0,0,0,0,0,0,0,0,8,0,16,1,,,,,,,,,,,,,,,,,182.81943839997984,182.81943839997984,187.00775940000312,187.00775940000312,,,,,,,01,001,Miguel,2023-05-03_16h07.02.873,Motor Imagery,2022.2.5,59.80206712180891,
Imagens/right.png,Imagens/up.png,"Vais fechar e abrir o punho direito ou esquerdo, mediante te apareça as setas "Direita" ou "Esquerda". Pressione a barra do ESPAÇO para começar.","Vais fechar e abrir ambos os punhos ou os pés, mediante te apareçam as setas "Para cima" ou "Para baixo", respetivamente. Pressione a barra do ESPAÇO para começar.",0,0,0,0,0,0,0,0,8,1,17,0,,,,,,,,,,,,,,,,,190.81163439998636,190.81163439998636,194.93298769998364,194.93298769998364,,,,,,,01,001,Miguel,2023-05-03_16h07.02.873,Motor Imagery,2022.2.5,59.80206712180891,
Imagens/right.png,Imagens/up.png,"Vais fechar e abrir o punho direito ou esquerdo, mediante te apareça as setas "Direita" ou "Esquerda". Pressione a barra do ESPAÇO para começar.","Vais fechar e abrir ambos os punhos ou os pés, mediante te apareçam as setas "Para cima" ou "Para baixo", respetivamente. Pressione a barra do ESPAÇO para começar.",0,0,0,0,0,0,0,0,9,0,18,0,,,,,,,,,,,,,,,,,198.82065210002474,198.82065210002474,202.84182099997997,202.84182099997997,,,,,,,01,001,Miguel,2023-05-03_16h07.02.873,Motor Imagery,2022.2.5,59.80206712180891,
Imagens/left.png,Imagens/down.png,"Vais imaginar o movimento de fechar e abrir o punho direito ou esquerdo, mediante te apareça as setas "Direita" ou "Esquerda". Pressione a barra do ESPAÇO para começar.","Vais imaginar o movimento de fechar e abrir ambos os punhos ou os pés, mediante te apareçam "Para cima" ou "Para baixo", respetivamente.  Pressione a barra do ESPAÇO para começar.",0,0,0,0,0,0,0,0,9,1,19,1,,,,,,,,,,,,,,,,,206.81319240003359,206.81319240003359,211.03473000001395,211.03473000001395,,,,,,,01,001,Miguel,2023-05-03_16h07.02.873,Motor Imagery,2022.2.5,59.80206712180891,
Imagens/right.png,Imagens/up.png,"Vais fechar e abrir o punho direito ou esquerdo, mediante te apareça as setas "Direita" ou "Esquerda". Pressione a barra do ESPAÇO para começar.","Vais fechar e abrir ambos os punhos ou os pés, mediante te apareçam as setas "Para cima" ou "Para baixo", respetivamente. Pressione a barra do ESPAÇO para começar.",0,0,0,0,0,0,0,0,10,0,20,0,,,,,,,,,,,,,,,,,214.8221588000306,214.8221588000306,218.92678029998206,218.92678029998206,,,,,,,01,001,Miguel,2023-05-03_16h07.02.873,Motor Imagery,2022.2.5,59.80206712180891,
Imagens/left.png,Imagens/down.png,"Vais imaginar o movimento de fechar e abrir o punho direito ou esquerdo, mediante te apareça as setas "Direita" ou "Esquerda". Pressione a barra do ESPAÇO para começar.","Vais imaginar o movimento de fechar e abrir ambos os punhos ou os pés, mediante te apareçam "Para cima" ou "Para baixo", respetivamente.  Pressione a barra do ESPAÇO para começar.",0,0,0,0,0,0,0,0,10,1,21,1,,,,,,,,,,,,,,,,,222.81481569999596,222.81481569999596,227.01915389997885,227.01915389997885,,,,,,,01,001,Miguel,2023-05-03_16h07.02.873,Motor Imagery,2022.2.5,59.80206712180891,
Imagens/left.png,Imagens/down.png,"Vais imaginar o movimento de fechar e abrir o punho direito ou esquerdo, mediante te apareça as setas "Direita" ou "Esquerda". Pressione a barra do ESPAÇO para começar.","Vais imaginar o movimento de fechar e abrir ambos os punhos ou os pés, mediante te apareçam "Para cima" ou "Para baixo", respetivamente.  Pressione a barra do ESPAÇO para começar.",0,0,0,0,0,0,0,0,11,0,22,1,,,,,,,,,,,,,,,,,230.8235551000107,230.8235551000107,235.00459929998033,235.00459929998033,,,,,,,01,001,Miguel,2023-05-03_16h07.02.873,Motor Imagery,2022.2.5,59.80206712180891,
Imagens/right.png,Imagens/up.png,"Vais fechar e abrir o punho direito ou esquerdo, mediante te apareça as setas "Direita" ou "Esquerda". Pressione a barra do ESPAÇO para começar.","Vais fechar e abrir ambos os punhos ou os pés, mediante te apareçam as setas "Para cima" ou "Para baixo", respetivamente. Pressione a barra do ESPAÇO para começar.",0,0,0,0,0,0,0,0,11,1,23,0,,,,,,,,,,,,,,,,,238.81634090002626,238.81634090002626,242.93727679998847,242.93727679998847,,,,,,,01,001,Miguel,2023-05-03_16h07.02.873,Motor Imagery,2022.2.5,59.80206712180891,
Imagens/left.png,Imagens/down.png,"Vais imaginar o movimento de fechar e abrir o punho direito ou esquerdo, mediante te apareça as setas "Direita" ou "Esquerda". Pressione a barra do ESPAÇO para começar.","Vais imaginar o movimento de fechar e abrir ambos os punhos ou os pés, mediante te apareçam "Para cima" ou "Para baixo", respetivamente.  Pressione a barra do ESPAÇO para começar.",0,0,0,0,0,0,0,0,12,0,24,1,,,,,,,,,,,,,,,,,246.8249473000178,246.8249473000178,251.01300600002287,251.01300600002287,,,,,,,01,001,Miguel,2023-05-03_16h07.02.873,Motor Imagery,2022.2.5,59.80206712180891,
Imagens/right.png,Imagens/up.png,"Vais fechar e abrir o punho direito ou esquerdo, mediante te apareça as setas "Direita" ou "Esquerda". Pressione a barra do ESPAÇO para começar.","Vais fechar e abrir ambos os punhos ou os pés, mediante te apareçam as setas "Para cima" ou "Para baixo", respetivamente. Pressione a barra do ESPAÇO para começar.",0,0,0,0,0,0,0,0,12,1,25,0,,,,,,,,,,,,,,,,,254.81761410000036,254.81761410000036,258.9386370999855,258.9386370999855,,,,,,,01,001,Miguel,2023-05-03_16h07.02.873,Motor Imagery,2022.2.5,59.80206712180891,
Imagens/right.png,Imagens/up.png,"Vais fechar e abrir o punho direito ou esquerdo, mediante te apareça as setas "Direita" ou "Esquerda". Pressione a barra do ESPAÇO para começar.","Vais fechar e abrir ambos os punhos ou os pés, mediante te apareçam as setas "Para cima" ou "Para baixo", respetivamente. Pressione a barra do ESPAÇO para começar.",0,0,0,0,0,0,0,0,13,0,26,0,,,,,,,,,,,,,,,,,262.80967119999696,262.80967119999696,266.83086889999686,266.83086889999686,,,,,,,01,001,Miguel,2023-05-03_16h07.02.873,Motor Imagery,2022.2.5,59.80206712180891,
Imagens/left.png,Imagens/down.png,"Vais imaginar o movimento de fechar e abrir o punho direito ou esquerdo, mediante te apareça as setas "Direita" ou "Esquerda". Pressione a barra do ESPAÇO para começar.","Vais imaginar o movimento de fechar e abrir ambos os punhos ou os pés, mediante te apareçam "Para cima" ou "Para baixo", respetivamente.  Pressione a barra do ESPAÇO para começar.",0,0,0,0,0,0,0,0,13,1,27,1,,,,,,,,,,,,,,,,,270.81901149998885,270.81901149998885,275.0234133999911,275.0234133999911,,,,,,,01,001,Miguel,2023-05-03_16h07.02.873,Motor Imagery,2022.2.5,59.80206712180891,
Imagens/right.png,Imagens/up.png,"Vais fechar e abrir o punho direito ou esquerdo, mediante te apareça as setas "Direita" ou "Esquerda". Pressione a barra do ESPAÇO para começar.","Vais fechar e abrir ambos os punhos ou os pés, mediante te apareçam as setas "Para cima" ou "Para baixo", respetivamente. Pressione a barra do ESPAÇO para começar.",0,0,0,0,0,0,0,0,14,0,28,0,,,,,,,,,,,,,,,,,278.8110916999867,278.8110916999867,282.9324277000269,282.9324277000269,,,,,,,01,001,Miguel,2023-05-03_16h07.02.873,Motor Imagery,2022.2.5,59.80206712180891,
Imagens/left.png,Imagens/down.png,"Vais imaginar o movimento de fechar e abrir o punho direito ou esquerdo, mediante te apareça as setas "Direita" ou "Esquerda". Pressione a barra do ESPAÇO para começar.","Vais imaginar o movimento de fechar e abrir ambos os punhos ou os pés, mediante te apareçam "Para cima" ou "Para baixo", respetivamente.  Pressione a barra do ESPAÇO para começar.",0,0,0,0,0,0,0,0,14,1,29,1,,,,,,,,,,,,,,,,,286.8200286999927,286.8200286999927,291.0419433999923,291.0419433999923,,,,,,,01,001,Miguel,2023-05-03_16h07.02.873,Motor Imagery,2022.2.5,59.80206712180891,
Imagens/right.png,Imagens/up.png,"Vais fechar e abrir o punho direito ou esquerdo, mediante te apareça as setas "Direita" ou "Esquerda". Pressione a barra do ESPAÇO para começar.","Vais fechar e abrir ambos os punhos ou os pés, mediante te apareçam as setas "Para cima" ou "Para baixo", respetivamente. Pressione a barra do ESPAÇO para começar.",0,0,0,0,0,0,0,0,,,,,,,,,,,,,,,,,,,,,,,,,,,,,,,01,001,Miguel,2023-05-03_16h07.02.873,Motor Imagery,2022.2.5,59.80206712180891,
Imagens/right.png,Imagens/up.png,"Vais fechar e abrir o punho direito ou esquerdo, mediante te apareça as setas "Direita" ou "Esquerda". Pressione a barra do ESPAÇO para começar.","Vais fechar e abrir ambos os punhos ou os pés, mediante te apareçam as setas "Para cima" ou "Para baixo", respetivamente. Pressione a barra do ESPAÇO para começar.",0,0,0,0,0,1,1,1,0,0,0,0,,,,,,,,,,,294.82924460002687,294.82924460002687,space,6.700598300027195,301.55346379999537,302.5544769000262,302.5544769000262,302.5544769000262,306.6759542999789,306.6759542999789,,,,,,,01,001,Miguel,2023-05-03_16h07.02.873,Motor Imagery,2022.2.5,59.80206712180891,
Imagens/left.png,Imagens/down.png,"Vais imaginar o movimento de fechar e abrir o punho direito ou esquerdo, mediante te apareça as setas "Direita" ou "Esquerda". Pressione a barra do ESPAÇO para começar.","Vais imaginar o movimento de fechar e abrir ambos os punhos ou os pés, mediante te apareçam "Para cima" ou "Para baixo", respetivamente.  Pressione a barra do ESPAÇO para começar.",0,0,0,0,0,1,1,1,0,1,1,1,,,,,,,,,,,,,,,,,310.56383330002427,310.56383330002427,314.7852081999881,314.7852081999881,,,,,,,01,001,Miguel,2023-05-03_16h07.02.873,Motor Imagery,2022.2.5,59.80206712180891,
Imagens/left.png,Imagens/down.png,"Vais imaginar o movimento de fechar e abrir o punho direito ou esquerdo, mediante te apareça as setas "Direita" ou "Esquerda". Pressione a barra do ESPAÇO para começar.","Vais imaginar o movimento de fechar e abrir ambos os punhos ou os pés, mediante te apareçam "Para cima" ou "Para baixo", respetivamente.  Pressione a barra do ESPAÇO para começar.",0,0,0,0,0,1,1,1,1,0,2,1,,,,,,,,,,,,,,,,,318.55614400003105,318.55614400003105,322.73654660000466,322.73654660000466,,,,,,,01,001,Miguel,2023-05-03_16h07.02.873,Motor Imagery,2022.2.5,59.80206712180891,
Imagens/right.png,Imagens/up.png,"Vais fechar e abrir o punho direito ou esquerdo, mediante te apareça as setas "Direita" ou "Esquerda". Pressione a barra do ESPAÇO para começar.","Vais fechar e abrir ambos os punhos ou os pés, mediante te apareçam as setas "Para cima" ou "Para baixo", respetivamente. Pressione a barra do ESPAÇO para começar.",0,0,0,0,0,1,1,1,1,1,3,0,,,,,,,,,,,,,,,,,326.56526020000456,326.56526020000456,330.6864462000085,330.6864462000085,,,,,,,01,001,Miguel,2023-05-03_16h07.02.873,Motor Imagery,2022.2.5,59.80206712180891,
Imagens/right.png,Imagens/up.png,"Vais fechar e abrir o punho direito ou esquerdo, mediante te apareça as setas "Direita" ou "Esquerda". Pressione a barra do ESPAÇO para começar.","Vais fechar e abrir ambos os punhos ou os pés, mediante te apareçam as setas "Para cima" ou "Para baixo", respetivamente. Pressione a barra do ESPAÇO para começar.",0,0,0,0,0,1,1,1,2,0,4,0,,,,,,,,,,,,,,,,,334.5575112000224,334.5575112000224,338.5785550000146,338.5785550000146,,,,,,,01,001,Miguel,2023-05-03_16h07.02.873,Motor Imagery,2022.2.5,59.80206712180891,
Imagens/left.png,Imagens/down.png,"Vais imaginar o movimento de fechar e abrir o punho direito ou esquerdo, mediante te apareça as setas "Direita" ou "Esquerda". Pressione a barra do ESPAÇO para começar.","Vais imaginar o movimento de fechar e abrir ambos os punhos ou os pés, mediante te apareçam "Para cima" ou "Para baixo", respetivamente.  Pressione a barra do ESPAÇO para começar.",0,0,0,0,0,1,1,1,2,1,5,1,,,,,,,,,,,,,,,,,342.56658849999076,342.56658849999076,346.788271300029,346.788271300029,,,,,,,01,001,Miguel,2023-05-03_16h07.02.873,Motor Imagery,2022.2.5,59.80206712180891,
Imagens/right.png,Imagens/up.png,"Vais fechar e abrir o punho direito ou esquerdo, mediante te apareça as setas "Direita" ou "Esquerda". Pressione a barra do ESPAÇO para começar.","Vais fechar e abrir ambos os punhos ou os pés, mediante te apareçam as setas "Para cima" ou "Para baixo", respetivamente. Pressione a barra do ESPAÇO para começar.",0,0,0,0,0,1,1,1,3,0,6,0,,,,,,,,,,,,,,,,,350.5588387000025,350.5588387000025,354.6803791000275,354.6803791000275,,,,,,,01,001,Miguel,2023-05-03_16h07.02.873,Motor Imagery,2022.2.5,59.80206712180891,
Imagens/left.png,Imagens/down.png,"Vais imaginar o movimento de fechar e abrir o punho direito ou esquerdo, mediante te apareça as setas "Direita" ou "Esquerda". Pressione a barra do ESPAÇO para começar.","Vais imaginar o movimento de fechar e abrir ambos os punhos ou os pés, mediante te apareçam "Para cima" ou "Para baixo", respetivamente.  Pressione a barra do ESPAÇO para começar.",0,0,0,0,0,1,1,1,3,1,7,1,,,,,,,,,,,,,,,,,358.567938400025,358.567938400025,362.8060500000138,362.8060500000138,,,,,,,01,001,Miguel,2023-05-03_16h07.02.873,Motor Imagery,2022.2.5,59.80206712180891,
Imagens/right.png,Imagens/up.png,"Vais fechar e abrir o punho direito ou esquerdo, mediante te apareça as setas "Direita" ou "Esquerda". Pressione a barra do ESPAÇO para começar.","Vais fechar e abrir ambos os punhos ou os pés, mediante te apareçam as setas "Para cima" ou "Para baixo", respetivamente. Pressione a barra do ESPAÇO para começar.",0,0,0,0,0,1,1,1,4,0,8,0,,,,,,,,,,,,,,,,,366.5604733999935,366.5604733999935,370.6817014000262,370.6817014000262,,,,,,,01,001,Miguel,2023-05-03_16h07.02.873,Motor Imagery,2022.2.5,59.80206712180891,
Imagens/left.png,Imagens/down.png,"Vais imaginar o movimento de fechar e abrir o punho direito ou esquerdo, mediante te apareça as setas "Direita" ou "Esquerda". Pressione a barra do ESPAÇO para começar.","Vais imaginar o movimento de fechar e abrir ambos os punhos ou os pés, mediante te apareçam "Para cima" ou "Para baixo", respetivamente.  Pressione a barra do ESPAÇO para começar.",0,0,0,0,0,1,1,1,4,1,9,1,,,,,,,,,,,,,,,,,374.56957160000456,374.56957160000456,378.7573832999915,378.7573832999915,,,,,,,01,001,Miguel,2023-05-03_16h07.02.873,Motor Imagery,2022.2.5,59.80206712180891,
Imagens/left.png,Imagens/down.png,"Vais imaginar o movimento de fechar e abrir o punho direito ou esquerdo, mediante te apareça as setas "Direita" ou "Esquerda". Pressione a barra do ESPAÇO para começar.","Vais imaginar o movimento de fechar e abrir ambos os punhos ou os pés, mediante te apareçam "Para cima" ou "Para baixo", respetivamente.  Pressione a barra do ESPAÇO para começar.",0,0,0,0,0,1,1,1,5,0,10,1,,,,,,,,,,,,,,,,,382.56175450002775,382.56175450002775,386.7497954000137,386.7497954000137,,,,,,,01,001,Miguel,2023-05-03_16h07.02.873,Motor Imagery,2022.2.5,59.80206712180891,
Imagens/right.png,Imagens/up.png,"Vais fechar e abrir o punho direito ou esquerdo, mediante te apareça as setas "Direita" ou "Esquerda". Pressione a barra do ESPAÇO para começar.","Vais fechar e abrir ambos os punhos ou os pés, mediante te apareçam as setas "Para cima" ou "Para baixo", respetivamente. Pressione a barra do ESPAÇO para começar.",0,0,0,0,0,1,1,1,5,1,11,0,,,,,,,,,,,,,,,,,390.5707524000318,390.5707524000318,394.67544090002775,394.67544090002775,,,,,,,01,001,Miguel,2023-05-03_16h07.02.873,Motor Imagery,2022.2.5,59.80206712180891,
Imagens/left.png,Imagens/down.png,"Vais imaginar o movimento de fechar e abrir o punho direito ou esquerdo, mediante te apareça as setas "Direita" ou "Esquerda". Pressione a barra do ESPAÇO para começar.","Vais imaginar o movimento de fechar e abrir ambos os punhos ou os pés, mediante te apareçam "Para cima" ou "Para baixo", respetivamente.  Pressione a barra do ESPAÇO para começar.",0,0,0,0,0,1,1,1,6,0,12,1,,,,,,,,,,,,,,,,,398.5631654000026,398.5631654000026,402.78460790001554,402.78460790001554,,,,,,,01,001,Miguel,2023-05-03_16h07.02.873,Motor Imagery,2022.2.5,59.80206712180891,
Imagens/right.png,Imagens/up.png,"Vais fechar e abrir o punho direito ou esquerdo, mediante te apareça as setas "Direita" ou "Esquerda". Pressione a barra do ESPAÇO para começar.","Vais fechar e abrir ambos os punhos ou os pés, mediante te apareçam as setas "Para cima" ou "Para baixo", respetivamente. Pressione a barra do ESPAÇO para começar.",0,0,0,0,0,1,1,1,6,1,13,0,,,,,,,,,,,,,,,,,406.55542940000305,406.55542940000305,410.67686489998596,410.67686489998596,,,,,,,01,001,Miguel,2023-05-03_16h07.02.873,Motor Imagery,2022.2.5,59.80206712180891,
Imagens/left.png,Imagens/down.png,"Vais imaginar o movimento de fechar e abrir o punho direito ou esquerdo, mediante te apareça as setas "Direita" ou "Esquerda". Pressione a barra do ESPAÇO para começar.","Vais imaginar o movimento de fechar e abrir ambos os punhos ou os pés, mediante te apareçam "Para cima" ou "Para baixo", respetivamente.  Pressione a barra do ESPAÇO para começar.",0,0,0,0,0,1,1,1,7,0,14,1,,,,,,,,,,,,,,,,,414.56496839999454,414.56496839999454,418.7862110999995,418.7862110999995,,,,,,,01,001,Miguel,2023-05-03_16h07.02.873,Motor Imagery,2022.2.5,59.80206712180891,
Imagens/right.png,Imagens/up.png,"Vais fechar e abrir o punho direito ou esquerdo, mediante te apareça as setas "Direita" ou "Esquerda". Pressione a barra do ESPAÇO para começar.","Vais fechar e abrir ambos os punhos ou os pés, mediante te apareçam as setas "Para cima" ou "Para baixo", respetivamente. Pressione a barra do ESPAÇO para começar.",0,0,0,0,0,1,1,1,7,1,15,0,,,,,,,,,,,,,,,,,422.55689820001135,422.55689820001135,426.6782641999889,426.6782641999889,,,,,,,01,001,Miguel,2023-05-03_16h07.02.873,Motor Imagery,2022.2.5,59.80206712180891,
Imagens/left.png,Imagens/down.png,"Vais imaginar o movimento de fechar e abrir o punho direito ou esquerdo, mediante te apareça as setas "Direita" ou "Esquerda". Pressione a barra do ESPAÇO para começar.","Vais imaginar o movimento de fechar e abrir ambos os punhos ou os pés, mediante te apareçam "Para cima" ou "Para baixo", respetivamente.  Pressione a barra do ESPAÇO para começar.",0,0,0,0,0,1,1,1,8,0,16,1,,,,,,,,,,,,,,,,,430.5659480000031,430.5659480000031,434.77078100002836,434.77078100002836,,,,,,,01,001,Miguel,2023-05-03_16h07.02.873,Motor Imagery,2022.2.5,59.80206712180891,
Imagens/right.png,Imagens/up.png,"Vais fechar e abrir o punho direito ou esquerdo, mediante te apareça as setas "Direita" ou "Esquerda". Pressione a barra do ESPAÇO para começar.","Vais fechar e abrir ambos os punhos ou os pés, mediante te apareçam as setas "Para cima" ou "Para baixo", respetivamente. Pressione a barra do ESPAÇO para começar.",0,0,0,0,0,1,1,1,8,1,17,0,,,,,,,,,,,,,,,,,438.5586149999872,438.5586149999872,442.67979730002116,442.67979730002116,,,,,,,01,001,Miguel,2023-05-03_16h07.02.873,Motor Imagery,2022.2.5,59.80206712180891,
Imagens/right.png,Imagens/up.png,"Vais fechar e abrir o punho direito ou esquerdo, mediante te apareça as setas "Direita" ou "Esquerda". Pressione a barra do ESPAÇO para começar.","Vais fechar e abrir ambos os punhos ou os pés, mediante te apareçam as setas "Para cima" ou "Para baixo", respetivamente. Pressione a barra do ESPAÇO para começar.",0,0,0,0,0,1,1,1,9,0,18,0,,,,,,,,,,,,,,,,,446.56733990000794,446.56733990000794,450.5720353000215,450.5720353000215,,,,,,,01,001,Miguel,2023-05-03_16h07.02.873,Motor Imagery,2022.2.5,59.80206712180891,
Imagens/left.png,Imagens/down.png,"Vais imaginar o movimento de fechar e abrir o punho direito ou esquerdo, mediante te apareça as setas "Direita" ou "Esquerda". Pressione a barra do ESPAÇO para começar.","Vais imaginar o movimento de fechar e abrir ambos os punhos ou os pés, mediante te apareçam "Para cima" ou "Para baixo", respetivamente.  Pressione a barra do ESPAÇO para começar.",0,0,0,0,0,1,1,1,9,1,19,1,,,,,,,,,,,,,,,,,454.5600279000355,454.5600279000355,458.7982693000231,458.7982693000231,,,,,,,01,001,Miguel,2023-05-03_16h07.02.873,Motor Imagery,2022.2.5,59.80206712180891,
Imagens/right.png,Imagens/up.png,"Vais fechar e abrir o punho direito ou esquerdo, mediante te apareça as setas "Direita" ou "Esquerda". Pressione a barra do ESPAÇO para começar.","Vais fechar e abrir ambos os punhos ou os pés, mediante te apareçam as setas "Para cima" ou "Para baixo", respetivamente. Pressione a barra do ESPAÇO para começar.",0,0,0,0,0,1,1,1,10,0,20,0,,,,,,,,,,,,,,,,,462.56873980001546,462.56873980001546,466.6734182999935,466.6734182999935,,,,,,,01,001,Miguel,2023-05-03_16h07.02.873,Motor Imagery,2022.2.5,59.80206712180891,
Imagens/left.png,Imagens/down.png,"Vais imaginar o movimento de fechar e abrir o punho direito ou esquerdo, mediante te apareça as setas "Direita" ou "Esquerda". Pressione a barra do ESPAÇO para começar.","Vais imaginar o movimento de fechar e abrir ambos os punhos ou os pés, mediante te apareçam "Para cima" ou "Para baixo", respetivamente.  Pressione a barra do ESPAÇO para começar.",0,0,0,0,0,1,1,1,10,1,21,1,,,,,,,,,,,,,,,,,470.5613334000227,470.5613334000227,474.78302289999556,474.78302289999556,,,,,,,01,001,Miguel,2023-05-03_16h07.02.873,Motor Imagery,2022.2.5,59.80206712180891,
Imagens/left.png,Imagens/down.png,"Vais imaginar o movimento de fechar e abrir o punho direito ou esquerdo, mediante te apareça as setas "Direita" ou "Esquerda". Pressione a barra do ESPAÇO para começar.","Vais imaginar o movimento de fechar e abrir ambos os punhos ou os pés, mediante te apareçam "Para cima" ou "Para baixo", respetivamente.  Pressione a barra do ESPAÇO para começar.",0,0,0,0,0,1,1,1,11,0,22,1,,,,,,,,,,,,,,,,,478.5701620000182,478.5701620000182,482.72948630002793,482.72948630002793,,,,,,,01,001,Miguel,2023-05-03_16h07.02.873,Motor Imagery,2022.2.5,59.80206712180891,
Imagens/right.png,Imagens/up.png,"Vais fechar e abrir o punho direito ou esquerdo, mediante te apareça as setas "Direita" ou "Esquerda". Pressione a barra do ESPAÇO para começar.","Vais fechar e abrir ambos os punhos ou os pés, mediante te apareçam as setas "Para cima" ou "Para baixo", respetivamente. Pressione a barra do ESPAÇO para começar.",0,0,0,0,0,1,1,1,11,1,23,0,,,,,,,,,,,,,,,,,486.5629699000274,486.5629699000274,490.6840602000011,490.6840602000011,,,,,,,01,001,Miguel,2023-05-03_16h07.02.873,Motor Imagery,2022.2.5,59.80206712180891,
Imagens/right.png,Imagens/up.png,"Vais fechar e abrir o punho direito ou esquerdo, mediante te apareça as setas "Direita" ou "Esquerda". Pressione a barra do ESPAÇO para começar.","Vais fechar e abrir ambos os punhos ou os pés, mediante te apareçam as setas "Para cima" ou "Para baixo", respetivamente. Pressione a barra do ESPAÇO para começar.",0,0,0,0,0,1,1,1,12,0,24,0,,,,,,,,,,,,,,,,,494.5549098000047,494.5549098000047,498.5762469000183,498.5762469000183,,,,,,,01,001,Miguel,2023-05-03_16h07.02.873,Motor Imagery,2022.2.5,59.80206712180891,
Imagens/left.png,Imagens/down.png,"Vais imaginar o movimento de fechar e abrir o punho direito ou esquerdo, mediante te apareça as setas "Direita" ou "Esquerda". Pressione a barra do ESPAÇO para começar.","Vais imaginar o movimento de fechar e abrir ambos os punhos ou os pés, mediante te apareçam "Para cima" ou "Para baixo", respetivamente.  Pressione a barra do ESPAÇO para começar.",0,0,0,0,0,1,1,1,12,1,25,1,,,,,,,,,,,,,,,,,502.5642314000288,502.5642314000288,506.785628099984,506.785628099984,,,,,,,01,001,Miguel,2023-05-03_16h07.02.873,Motor Imagery,2022.2.5,59.80206712180891,
Imagens/right.png,Imagens/up.png,"Vais fechar e abrir o punho direito ou esquerdo, mediante te apareça as setas "Direita" ou "Esquerda". Pressione a barra do ESPAÇO para começar.","Vais fechar e abrir ambos os punhos ou os pés, mediante te apareçam as setas "Para cima" ou "Para baixo", respetivamente. Pressione a barra do ESPAÇO para começar.",0,0,0,0,0,1,1,1,13,0,26,0,,,,,,,,,,,,,,,,,510.5563226999948,510.5563226999948,514.6776706000092,514.6776706000092,,,,,,,01,001,Miguel,2023-05-03_16h07.02.873,Motor Imagery,2022.2.5,59.80206712180891,
Imagens/left.png,Imagens/down.png,"Vais imaginar o movimento de fechar e abrir o punho direito ou esquerdo, mediante te apareça as setas "Direita" ou "Esquerda". Pressione a barra do ESPAÇO para começar.","Vais imaginar o movimento de fechar e abrir ambos os punhos ou os pés, mediante te apareçam "Para cima" ou "Para baixo", respetivamente.  Pressione a barra do ESPAÇO para começar.",0,0,0,0,0,1,1,1,13,1,27,1,,,,,,,,,,,,,,,,,518.5655050000059,518.5655050000059,522.786961500009,522.786961500009,,,,,,,01,001,Miguel,2023-05-03_16h07.02.873,Motor Imagery,2022.2.5,59.80206712180891,
Imagens/right.png,Imagens/up.png,"Vais fechar e abrir o punho direito ou esquerdo, mediante te apareça as setas "Direita" ou "Esquerda". Pressione a barra do ESPAÇO para começar.","Vais fechar e abrir ambos os punhos ou os pés, mediante te apareçam as setas "Para cima" ou "Para baixo", respetivamente. Pressione a barra do ESPAÇO para começar.",0,0,0,0,0,1,1,1,14,0,28,0,,,,,,,,,,,,,,,,,526.5581065000151,526.5581065000151,530.679183100001,530.679183100001,,,,,,,01,001,Miguel,2023-05-03_16h07.02.873,Motor Imagery,2022.2.5,59.80206712180891,
Imagens/left.png,Imagens/down.png,"Vais imaginar o movimento de fechar e abrir o punho direito ou esquerdo, mediante te apareça as setas "Direita" ou "Esquerda". Pressione a barra do ESPAÇO para começar.","Vais imaginar o movimento de fechar e abrir ambos os punhos ou os pés, mediante te apareçam "Para cima" ou "Para baixo", respetivamente.  Pressione a barra do ESPAÇO para começar.",0,0,0,0,0,1,1,1,14,1,29,1,,,,,,,,,,,,,,,,,534.5667894000071,534.5667894000071,538.7715846000356,538.7715846000356,,,,,,,01,001,Miguel,2023-05-03_16h07.02.873,Motor Imagery,2022.2.5,59.80206712180891,
Imagens/left.png,Imagens/down.png,"Vais imaginar o movimento de fechar e abrir o punho direito ou esquerdo, mediante te apareça as setas "Direita" ou "Esquerda". Pressione a barra do ESPAÇO para começar.","Vais imaginar o movimento de fechar e abrir ambos os punhos ou os pés, mediante te apareçam "Para cima" ou "Para baixo", respetivamente.  Pressione a barra do ESPAÇO para começar.",0,0,0,0,0,1,1,1,,,,,,,,,,,,,,,,,,,,,,,,,,,,,,,01,001,Miguel,2023-05-03_16h07.02.873,Motor Imagery,2022.2.5,59.80206712180891,
Imagens/left.png,Imagens/down.png,"Vais imaginar o movimento de fechar e abrir o punho direito ou esquerdo, mediante te apareça as setas "Direita" ou "Esquerda". Pressione a barra do ESPAÇO para começar.","Vais imaginar o movimento de fechar e abrir ambos os punhos ou os pés, mediante te apareçam "Para cima" ou "Para baixo", respetivamente.  Pressione a barra do ESPAÇO para começar.",0,0,0,0,,,,,,,,,0,0,0,0,0,0,0,1,,,,,,,548.616444299987,549.6205938000348,549.6205938000348,549.6205938000348,,,542.5760767000029,542.5760767000029,space,6.010092200012878,553.641795500007,553.641795500007,01,001,Miguel,2023-05-03_16h07.02.873,Motor Imagery,2022.2.5,59.80206712180891,
Imagens/right.png,Imagens/up.png,"Vais fechar e abrir o punho direito ou esquerdo, mediante te apareça as setas "Direita" ou "Esquerda". Pressione a barra do ESPAÇO para começar.","Vais fechar e abrir ambos os punhos ou os pés, mediante te apareçam as setas "Para cima" ou "Para baixo", respetivamente. Pressione a barra do ESPAÇO para começar.",0,0,0,0,,,,,,,,,0,0,0,0,0,1,1,0,,,,,,,,,557.6263605999993,557.6263605999993,,,,,,,561.8310275999829,561.8310275999829,01,001,Miguel,2023-05-03_16h07.02.873,Motor Imagery,2022.2.5,59.80206712180891,
Imagens/right.png,Imagens/up.png,"Vais fechar e abrir o punho direito ou esquerdo, mediante te apareça as setas "Direita" ou "Esquerda". Pressione a barra do ESPAÇO para começar.","Vais fechar e abrir ambos os punhos ou os pés, mediante te apareçam as setas "Para cima" ou "Para baixo", respetivamente. Pressione a barra do ESPAÇO para começar.",0,0,0,0,,,,,,,,,0,0,0,0,1,0,2,0,,,,,,,,,565.6185760999797,565.6185760999797,,,,,,,569.7634568000212,569.7634568000212,01,001,Miguel,2023-05-03_16h07.02.873,Motor Imagery,2022.2.5,59.80206712180891,
Imagens/left.png,Imagens/down.png,"Vais imaginar o movimento de fechar e abrir o punho direito ou esquerdo, mediante te apareça as setas "Direita" ou "Esquerda". Pressione a barra do ESPAÇO para começar.","Vais imaginar o movimento de fechar e abrir ambos os punhos ou os pés, mediante te apareçam "Para cima" ou "Para baixo", respetivamente.  Pressione a barra do ESPAÇO para começar.",0,0,0,0,,,,,,,,,0,0,0,0,1,1,3,1,,,,,,,,,573.6281248999876,573.6281248999876,,,,,,,577.7660047999816,577.7660047999816,01,001,Miguel,2023-05-03_16h07.02.873,Motor Imagery,2022.2.5,59.80206712180891,
Imagens/right.png,Imagens/up.png,"Vais fechar e abrir o punho direito ou esquerdo, mediante te apareça as setas "Direita" ou "Esquerda". Pressione a barra do ESPAÇO para começar.","Vais fechar e abrir ambos os punhos ou os pés, mediante te apareçam as setas "Para cima" ou "Para baixo", respetivamente. Pressione a barra do ESPAÇO para começar.",0,0,0,0,,,,,,,,,0,0,0,0,2,0,4,0,,,,,,,,,581.6199891000288,581.6199891000288,,,,,,,585.7914530999842,585.7914530999842,01,001,Miguel,2023-05-03_16h07.02.873,Motor Imagery,2022.2.5,59.80206712180891,
Imagens/left.png,Imagens/down.png,"Vais imaginar o movimento de fechar e abrir o punho direito ou esquerdo, mediante te apareça as setas "Direita" ou "Esquerda". Pressione a barra do ESPAÇO para começar.","Vais imaginar o movimento de fechar e abrir ambos os punhos ou os pés, mediante te apareçam "Para cima" ou "Para baixo", respetivamente.  Pressione a barra do ESPAÇO para começar.",0,0,0,0,,,,,,,,,0,0,0,0,2,1,5,1,,,,,,,,,589.6290364000015,589.6290364000015,,,,,,,593.767090999987,593.767090999987,01,001,Miguel,2023-05-03_16h07.02.873,Motor Imagery,2022.2.5,59.80206712180891,
Imagens/right.png,Imagens/up.png,"Vais fechar e abrir o punho direito ou esquerdo, mediante te apareça as setas "Direita" ou "Esquerda". Pressione a barra do ESPAÇO para começar.","Vais fechar e abrir ambos os punhos ou os pés, mediante te apareçam as setas "Para cima" ou "Para baixo", respetivamente. Pressione a barra do ESPAÇO para começar.",0,0,0,0,,,,,,,,,0,0,0,0,3,0,6,0,,,,,,,,,597.6214110000292,597.6214110000292,,,,,,,601.7774248000351,601.7774248000351,01,001,Miguel,2023-05-03_16h07.02.873,Motor Imagery,2022.2.5,59.80206712180891,
Imagens/left.png,Imagens/down.png,"Vais imaginar o movimento de fechar e abrir o punho direito ou esquerdo, mediante te apareça as setas "Direita" ou "Esquerda". Pressione a barra do ESPAÇO para começar.","Vais imaginar o movimento de fechar e abrir ambos os punhos ou os pés, mediante te apareçam "Para cima" ou "Para baixo", respetivamente.  Pressione a barra do ESPAÇO para começar.",0,0,0,0,,,,,,,,,0,0,0,0,3,1,7,1,,,,,,,,,605.6304718999891,605.6304718999891,,,,,,,609.7518465000321,609.7518465000321,01,001,Miguel,2023-05-03_16h07.02.873,Motor Imagery,2022.2.5,59.80206712180891,
Imagens/right.png,Imagens/up.png,"Vais fechar e abrir o punho direito ou esquerdo, mediante te apareça as setas "Direita" ou "Esquerda". Pressione a barra do ESPAÇO para começar.","Vais fechar e abrir ambos os punhos ou os pés, mediante te apareçam as setas "Para cima" ou "Para baixo", respetivamente. Pressione a barra do ESPAÇO para começar.",0,0,0,0,,,,,,,,,0,0,0,0,4,0,8,0,,,,,,,,,613.6228415999794,613.6228415999794,,,,,,,617.7946382000227,617.7946382000227,01,001,Miguel,2023-05-03_16h07.02.873,Motor Imagery,2022.2.5,59.80206712180891,
Imagens/left.png,Imagens/down.png,"Vais imaginar o movimento de fechar e abrir o punho direito ou esquerdo, mediante te apareça as setas "Direita" ou "Esquerda". Pressione a barra do ESPAÇO para começar.","Vais imaginar o movimento de fechar e abrir ambos os punhos ou os pés, mediante te apareçam "Para cima" ou "Para baixo", respetivamente.  Pressione a barra do ESPAÇO para começar.",0,0,0,0,,,,,,,,,0,0,0,0,4,1,9,1,,,,,,,,,621.631888200005,621.631888200005,,,,,,,625.7532209000201,625.7532209000201,01,001,Miguel,2023-05-03_16h07.02.873,Motor Imagery,2022.2.5,59.80206712180891,
Imagens/right.png,Imagens/up.png,"Vais fechar e abrir o punho direito ou esquerdo, mediante te apareça as setas "Direita" ou "Esquerda". Pressione a barra do ESPAÇO para começar.","Vais fechar e abrir ambos os punhos ou os pés, mediante te apareçam as setas "Para cima" ou "Para baixo", respetivamente. Pressione a barra do ESPAÇO para começar.",0,0,0,0,,,,,,,,,0,0,0,0,5,0,10,0,,,,,,,,,629.6242778000305,629.6242778000305,,,,,,,633.7956789000309,633.7956789000309,01,001,Miguel,2023-05-03_16h07.02.873,Motor Imagery,2022.2.5,59.80206712180891,
Imagens/left.png,Imagens/down.png,"Vais imaginar o movimento de fechar e abrir o punho direito ou esquerdo, mediante te apareça as setas "Direita" ou "Esquerda". Pressione a barra do ESPAÇO para começar.","Vais imaginar o movimento de fechar e abrir ambos os punhos ou os pés, mediante te apareçam "Para cima" ou "Para baixo", respetivamente.  Pressione a barra do ESPAÇO para começar.",0,0,0,0,,,,,,,,,0,0,0,0,5,1,11,1,,,,,,,,,637.633351800032,637.633351800032,,,,,,,641.7547353000264,641.7547353000264,01,001,Miguel,2023-05-03_16h07.02.873,Motor Imagery,2022.2.5,59.80206712180891,
Imagens/left.png,Imagens/down.png,"Vais imaginar o movimento de fechar e abrir o punho direito ou esquerdo, mediante te apareça as setas "Direita" ou "Esquerda". Pressione a barra do ESPAÇO para começar.","Vais imaginar o movimento de fechar e abrir ambos os punhos ou os pés, mediante te apareçam "Para cima" ou "Para baixo", respetivamente.  Pressione a barra do ESPAÇO para começar.",0,0,0,0,,,,,,,,,0,0,0,0,6,0,12,1,,,,,,,,,645.6256846000324,645.6256846000324,,,,,,,649.646666900022,649.646666900022,01,001,Miguel,2023-05-03_16h07.02.873,Motor Imagery,2022.2.5,59.80206712180891,
Imagens/right.png,Imagens/up.png,"Vais fechar e abrir o punho direito ou esquerdo, mediante te apareça as setas "Direita" ou "Esquerda". Pressione a barra do ESPAÇO para começar.","Vais fechar e abrir ambos os punhos ou os pés, mediante te apareçam as setas "Para cima" ou "Para baixo", respetivamente. Pressione a barra do ESPAÇO para começar.",0,0,0,0,,,,,,,,,0,0,0,0,6,1,13,0,,,,,,,,,653.6347209999803,653.6347209999803,,,,,,,657.7726675000158,657.7726675000158,01,001,Miguel,2023-05-03_16h07.02.873,Motor Imagery,2022.2.5,59.80206712180891,
Imagens/right.png,Imagens/up.png,"Vais fechar e abrir o punho direito ou esquerdo, mediante te apareça as setas "Direita" ou "Esquerda". Pressione a barra do ESPAÇO para começar.","Vais fechar e abrir ambos os punhos ou os pés, mediante te apareçam as setas "Para cima" ou "Para baixo", respetivamente. Pressione a barra do ESPAÇO para começar.",0,0,0,0,,,,,,,,,0,0,0,0,7,0,14,0,,,,,,,,,661.6270335000008,661.6270335000008,,,,,,,665.872153000033,665.872153000033,01,001,Miguel,2023-05-03_16h07.02.873,Motor Imagery,2022.2.5,59.80206712180891,
Imagens/left.png,Imagens/down.png,"Vais imaginar o movimento de fechar e abrir o punho direito ou esquerdo, mediante te apareça as setas "Direita" ou "Esquerda". Pressione a barra do ESPAÇO para começar.","Vais imaginar o movimento de fechar e abrir ambos os punhos ou os pés, mediante te apareçam "Para cima" ou "Para baixo", respetivamente.  Pressione a barra do ESPAÇO para começar.",0,0,0,0,,,,,,,,,0,0,0,0,7,1,15,1,,,,,,,,,669.6200688999961,669.6200688999961,,,,,,,673.7577691000188,673.7577691000188,01,001,Miguel,2023-05-03_16h07.02.873,Motor Imagery,2022.2.5,59.80206712180891,
Imagens/right.png,Imagens/up.png,"Vais fechar e abrir o punho direito ou esquerdo, mediante te apareça as setas "Direita" ou "Esquerda". Pressione a barra do ESPAÇO para começar.","Vais fechar e abrir ambos os punhos ou os pés, mediante te apareçam as setas "Para cima" ou "Para baixo", respetivamente. Pressione a barra do ESPAÇO para começar.",0,0,0,0,,,,,,,,,0,0,0,0,8,0,16,0,,,,,,,,,677.6284979000338,677.6284979000338,,,,,,,681.7834460000158,681.7834460000158,01,001,Miguel,2023-05-03_16h07.02.873,Motor Imagery,2022.2.5,59.80206712180891,
Imagens/left.png,Imagens/down.png,"Vais imaginar o movimento de fechar e abrir o punho direito ou esquerdo, mediante te apareça as setas "Direita" ou "Esquerda". Pressione a barra do ESPAÇO para começar.","Vais imaginar o movimento de fechar e abrir ambos os punhos ou os pés, mediante te apareçam "Para cima" ou "Para baixo", respetivamente.  Pressione a barra do ESPAÇO para começar.",0,0,0,0,,,,,,,,,0,0,0,0,8,1,17,1,,,,,,,,,685.6209024999989,685.6209024999989,,,,,,,689.7589750000043,689.7589750000043,01,001,Miguel,2023-05-03_16h07.02.873,Motor Imagery,2022.2.5,59.80206712180891,
Imagens/right.png,Imagens/up.png,"Vais fechar e abrir o punho direito ou esquerdo, mediante te apareça as setas "Direita" ou "Esquerda". Pressione a barra do ESPAÇO para começar.","Vais fechar e abrir ambos os punhos ou os pés, mediante te apareçam as setas "Para cima" ou "Para baixo", respetivamente. Pressione a barra do ESPAÇO para começar.",0,0,0,0,,,,,,,,,0,0,0,0,9,0,18,0,,,,,,,,,693.6302454000106,693.6302454000106,,,,,,,697.8183846999891,697.8183846999891,01,001,Miguel,2023-05-03_16h07.02.873,Motor Imagery,2022.2.5,59.80206712180891,
Imagens/left.png,Imagens/down.png,"Vais imaginar o movimento de fechar e abrir o punho direito ou esquerdo, mediante te apareça as setas "Direita" ou "Esquerda". Pressione a barra do ESPAÇO para começar.","Vais imaginar o movimento de fechar e abrir ambos os punhos ou os pés, mediante te apareçam "Para cima" ou "Para baixo", respetivamente.  Pressione a barra do ESPAÇO para começar.",0,0,0,0,,,,,,,,,0,0,0,0,9,1,19,1,,,,,,,,,701.6223198000225,701.6223198000225,,,,,,,705.7603662000038,705.7603662000038,01,001,Miguel,2023-05-03_16h07.02.873,Motor Imagery,2022.2.5,59.80206712180891,
Imagens/right.png,Imagens/up.png,"Vais fechar e abrir o punho direito ou esquerdo, mediante te apareça as setas "Direita" ou "Esquerda". Pressione a barra do ESPAÇO para começar.","Vais fechar e abrir ambos os punhos ou os pés, mediante te apareçam as setas "Para cima" ou "Para baixo", respetivamente. Pressione a barra do ESPAÇO para começar.",0,0,0,0,,,,,,,,,0,0,0,0,10,0,20,0,,,,,,,,,709.6314322000253,709.6314322000253,,,,,,,713.7692458999809,713.7692458999809,01,001,Miguel,2023-05-03_16h07.02.873,Motor Imagery,2022.2.5,59.80206712180891,
Imagens/left.png,Imagens/down.png,"Vais imaginar o movimento de fechar e abrir o punho direito ou esquerdo, mediante te apareça as setas "Direita" ou "Esquerda". Pressione a barra do ESPAÇO para começar.","Vais imaginar o movimento de fechar e abrir ambos os punhos ou os pés, mediante te apareçam "Para cima" ou "Para baixo", respetivamente.  Pressione a barra do ESPAÇO para começar.",0,0,0,0,,,,,,,,,0,0,0,0,10,1,21,1,,,,,,,,,717.6238143999944,717.6238143999944,,,,,,,721.7617813000106,721.7617813000106,01,001,Miguel,2023-05-03_16h07.02.873,Motor Imagery,2022.2.5,59.80206712180891,
Imagens/right.png,Imagens/up.png,"Vais fechar e abrir o punho direito ou esquerdo, mediante te apareça as setas "Direita" ou "Esquerda". Pressione a barra do ESPAÇO para começar.","Vais fechar e abrir ambos os punhos ou os pés, mediante te apareçam as setas "Para cima" ou "Para baixo", respetivamente. Pressione a barra do ESPAÇO para começar.",0,0,0,0,,,,,,,,,0,0,0,0,11,0,22,0,,,,,,,,,725.6329774000333,725.6329774000333,,,,,,,729.7875409999979,729.7875409999979,01,001,Miguel,2023-05-03_16h07.02.873,Motor Imagery,2022.2.5,59.80206712180891,
Imagens/left.png,Imagens/down.png,"Vais imaginar o movimento de fechar e abrir o punho direito ou esquerdo, mediante te apareça as setas "Direita" ou "Esquerda". Pressione a barra do ESPAÇO para começar.","Vais imaginar o movimento de fechar e abrir ambos os punhos ou os pés, mediante te apareçam "Para cima" ou "Para baixo", respetivamente.  Pressione a barra do ESPAÇO para começar.",0,0,0,0,,,,,,,,,0,0,0,0,11,1,23,1,,,,,,,,,733.6250706000137,733.6250706000137,,,,,,,737.7631646000082,737.7631646000082,01,001,Miguel,2023-05-03_16h07.02.873,Motor Imagery,2022.2.5,59.80206712180891,
Imagens/right.png,Imagens/up.png,"Vais fechar e abrir o punho direito ou esquerdo, mediante te apareça as setas "Direita" ou "Esquerda". Pressione a barra do ESPAÇO para começar.","Vais fechar e abrir ambos os punhos ou os pés, mediante te apareçam as setas "Para cima" ou "Para baixo", respetivamente. Pressione a barra do ESPAÇO para começar.",0,0,0,0,,,,,,,,,0,0,0,0,12,0,24,0,,,,,,,,,741.634232899989,741.634232899989,,,,,,,745.7890204000287,745.7890204000287,01,001,Miguel,2023-05-03_16h07.02.873,Motor Imagery,2022.2.5,59.80206712180891,
Imagens/left.png,Imagens/down.png,"Vais imaginar o movimento de fechar e abrir o punho direito ou esquerdo, mediante te apareça as setas "Direita" ou "Esquerda". Pressione a barra do ESPAÇO para começar.","Vais imaginar o movimento de fechar e abrir ambos os punhos ou os pés, mediante te apareçam "Para cima" ou "Para baixo", respetivamente.  Pressione a barra do ESPAÇO para começar.",0,0,0,0,,,,,,,,,0,0,0,0,12,1,25,1,,,,,,,,,749.6266080000205,749.6266080000205,,,,,,,753.7817196000251,753.7817196000251,01,001,Miguel,2023-05-03_16h07.02.873,Motor Imagery,2022.2.5,59.80206712180891,
Imagens/left.png,Imagens/down.png,"Vais imaginar o movimento de fechar e abrir o punho direito ou esquerdo, mediante te apareça as setas "Direita" ou "Esquerda". Pressione a barra do ESPAÇO para começar.","Vais imaginar o movimento de fechar e abrir ambos os punhos ou os pés, mediante te apareçam "Para cima" ou "Para baixo", respetivamente.  Pressione a barra do ESPAÇO para começar.",0,0,0,0,,,,,,,,,0,0,0,0,13,0,26,1,,,,,,,,,757.6189570000279,757.6189570000279,,,,,,,761.6400718999794,761.6400718999794,01,001,Miguel,2023-05-03_16h07.02.873,Motor Imagery,2022.2.5,59.80206712180891,
Imagens/right.png,Imagens/up.png,"Vais fechar e abrir o punho direito ou esquerdo, mediante te apareça as setas "Direita" ou "Esquerda". Pressione a barra do ESPAÇO para começar.","Vais fechar e abrir ambos os punhos ou os pés, mediante te apareçam as setas "Para cima" ou "Para baixo", respetivamente. Pressione a barra do ESPAÇO para começar.",0,0,0,0,,,,,,,,,0,0,0,0,13,1,27,0,,,,,,,,,765.6279869999853,765.6279869999853,,,,,,,769.7828404000029,769.7828404000029,01,001,Miguel,2023-05-03_16h07.02.873,Motor Imagery,2022.2.5,59.80206712180891,
Imagens/left.png,Imagens/down.png,"Vais imaginar o movimento de fechar e abrir o punho direito ou esquerdo, mediante te apareça as setas "Direita" ou "Esquerda". Pressione a barra do ESPAÇO para começar.","Vais imaginar o movimento de fechar e abrir ambos os punhos ou os pés, mediante te apareçam "Para cima" ou "Para baixo", respetivamente.  Pressione a barra do ESPAÇO para começar.",0,0,0,0,,,,,,,,,0,0,0,0,14,0,28,1,,,,,,,,,773.6206113999942,773.6206113999942,,,,,,,777.7584977999795,777.7584977999795,01,001,Miguel,2023-05-03_16h07.02.873,Motor Imagery,2022.2.5,59.80206712180891,
Imagens/right.png,Imagens/up.png,"Vais fechar e abrir o punho direito ou esquerdo, mediante te apareça as setas "Direita" ou "Esquerda". Pressione a barra do ESPAÇO para começar.","Vais fechar e abrir ambos os punhos ou os pés, mediante te apareçam as setas "Para cima" ou "Para baixo", respetivamente. Pressione a barra do ESPAÇO para começar.",0,0,0,0,,,,,,,,,0,0,0,0,14,1,29,0,,,,,,,,,781.6294312999817,781.6294312999817,,,,,,,785.8009309000336,785.8009309000336,01,001,Miguel,2023-05-03_16h07.02.873,Motor Imagery,2022.2.5,59.80206712180891,
Imagens/right.png,Imagens/up.png,"Vais fechar e abrir o punho direito ou esquerdo, mediante te apareça as setas "Direita" ou "Esquerda". Pressione a barra do ESPAÇO para começar.","Vais fechar e abrir ambos os punhos ou os pés, mediante te apareçam as setas "Para cima" ou "Para baixo", respetivamente. Pressione a barra do ESPAÇO para começar.",0,0,0,0,,,,,,,,,0,0,0,0,,,,,,,,,,,,,,,,,,,,,,,01,001,Miguel,2023-05-03_16h07.02.873,Motor Imagery,2022.2.5,59.80206712180891,
Imagens/right.png,Imagens/up.png,"Vais fechar e abrir o punho direito ou esquerdo, mediante te apareça as setas "Direita" ou "Esquerda". Pressione a barra do ESPAÇO para começar.","Vais fechar e abrir ambos os punhos ou os pés, mediante te apareçam as setas "Para cima" ou "Para baixo", respetivamente. Pressione a barra do ESPAÇO para começar.",0,0,0,0,,,,,,,,,0,1,1,1,0,0,0,0,,,,,,,797.6308169999975,798.6319503000122,798.6319503000122,798.6319503000122,,,789.6385635000188,789.6385635000188,space,7.961032399965916,802.7624168000184,802.7624168000184,01,001,Miguel,2023-05-03_16h07.02.873,Motor Imagery,2022.2.5,59.80206712180891,
Imagens/left.png,Imagens/down.png,"Vais imaginar o movimento de fechar e abrir o punho direito ou esquerdo, mediante te apareça as setas "Direita" ou "Esquerda". Pressione a barra do ESPAÇO para começar.","Vais imaginar o movimento de fechar e abrir ambos os punhos ou os pés, mediante te apareçam "Para cima" ou "Para baixo", respetivamente.  Pressione a barra do ESPAÇO para começar.",0,0,0,0,,,,,,,,,0,1,1,1,0,1,1,1,,,,,,,,,806.6413876999868,806.6413876999868,,,,,,,810.7793350000284,810.7793350000284,01,001,Miguel,2023-05-03_16h07.02.873,Motor Imagery,2022.2.5,59.80206712180891,
Imagens/left.png,Imagens/down.png,"Vais imaginar o movimento de fechar e abrir o punho direito ou esquerdo, mediante te apareça as setas "Direita" ou "Esquerda". Pressione a barra do ESPAÇO para começar.","Vais imaginar o movimento de fechar e abrir ambos os punhos ou os pés, mediante te apareçam "Para cima" ou "Para baixo", respetivamente.  Pressione a barra do ESPAÇO para começar.",0,0,0,0,,,,,,,,,0,1,1,1,1,0,2,1,,,,,,,,,814.6333835999831,814.6333835999831,,,,,,,818.6546709000249,818.6546709000249,01,001,Miguel,2023-05-03_16h07.02.873,Motor Imagery,2022.2.5,59.80206712180891,
Imagens/right.png,Imagens/up.png,"Vais fechar e abrir o punho direito ou esquerdo, mediante te apareça as setas "Direita" ou "Esquerda". Pressione a barra do ESPAÇO para começar.","Vais fechar e abrir ambos os punhos ou os pés, mediante te apareçam as setas "Para cima" ou "Para baixo", respetivamente. Pressione a barra do ESPAÇO para começar.",0,0,0,0,,,,,,,,,0,1,1,1,1,1,3,0,,,,,,,,,822.6424300000072,822.6424300000072,,,,,,,826.8137679999927,826.8137679999927,01,001,Miguel,2023-05-03_16h07.02.873,Motor Imagery,2022.2.5,59.80206712180891,
Imagens/right.png,Imagens/up.png,"Vais fechar e abrir o punho direito ou esquerdo, mediante te apareça as setas "Direita" ou "Esquerda". Pressione a barra do ESPAÇO para começar.","Vais fechar e abrir ambos os punhos ou os pés, mediante te apareçam as setas "Para cima" ou "Para baixo", respetivamente. Pressione a barra do ESPAÇO para começar.",0,0,0,0,,,,,,,,,0,1,1,1,2,0,4,0,,,,,,,,,830.6347101000138,830.6347101000138,,,,,,,834.7727976000169,834.7727976000169,01,001,Miguel,2023-05-03_16h07.02.873,Motor Imagery,2022.2.5,59.80206712180891,
Imagens/left.png,Imagens/down.png,"Vais imaginar o movimento de fechar e abrir o punho direito ou esquerdo, mediante te apareça as setas "Direita" ou "Esquerda". Pressione a barra do ESPAÇO para começar.","Vais imaginar o movimento de fechar e abrir ambos os punhos ou os pés, mediante te apareçam "Para cima" ou "Para baixo", respetivamente.  Pressione a barra do ESPAÇO para começar.",0,0,0,0,,,,,,,,,0,1,1,1,2,1,5,1,,,,,,,,,838.6440110999974,838.6440110999974,,,,,,,842.781920999987,842.781920999987,01,001,Miguel,2023-05-03_16h07.02.873,Motor Imagery,2022.2.5,59.80206712180891,
Imagens/right.png,Imagens/up.png,"Vais fechar e abrir o punho direito ou esquerdo, mediante te apareça as setas "Direita" ou "Esquerda". Pressione a barra do ESPAÇO para começar.","Vais fechar e abrir ambos os punhos ou os pés, mediante te apareçam as setas "Para cima" ou "Para baixo", respetivamente. Pressione a barra do ESPAÇO para começar.",0,0,0,0,,,,,,,,,0,1,1,1,3,0,6,0,,,,,,,,,846.6364766000188,846.6364766000188,,,,,,,850.8076508999802,850.8076508999802,01,001,Miguel,2023-05-03_16h07.02.873,Motor Imagery,2022.2.5,59.80206712180891,
Imagens/left.png,Imagens/down.png,"Vais imaginar o movimento de fechar e abrir o punho direito ou esquerdo, mediante te apareça as setas "Direita" ou "Esquerda". Pressione a barra do ESPAÇO para começar.","Vais imaginar o movimento de fechar e abrir ambos os punhos ou os pés, mediante te apareçam "Para cima" ou "Para baixo", respetivamente.  Pressione a barra do ESPAÇO para começar.",0,0,0,0,,,,,,,,,0,1,1,1,3,1,7,1,,,,,,,,,854.6452344999998,854.6452344999998,,,,,,,858.7666109999991,858.7666109999991,01,001,Miguel,2023-05-03_16h07.02.873,Motor Imagery,2022.2.5,59.80206712180891,
Imagens/right.png,Imagens/up.png,"Vais fechar e abrir o punho direito ou esquerdo, mediante te apareça as setas "Direita" ou "Esquerda". Pressione a barra do ESPAÇO para começar.","Vais fechar e abrir ambos os punhos ou os pés, mediante te apareçam as setas "Para cima" ou "Para baixo", respetivamente. Pressione a barra do ESPAÇO para começar.",0,0,0,0,,,,,,,,,0,1,1,1,4,0,8,0,,,,,,,,,862.6375819999957,862.6375819999957,,,,,,,866.7930064999964,866.7930064999964,01,001,Miguel,2023-05-03_16h07.02.873,Motor Imagery,2022.2.5,59.80206712180891,
Imagens/left.png,Imagens/down.png,"Vais imaginar o movimento de fechar e abrir o punho direito ou esquerdo, mediante te apareça as setas "Direita" ou "Esquerda". Pressione a barra do ESPAÇO para começar.","Vais imaginar o movimento de fechar e abrir ambos os punhos ou os pés, mediante te apareçam "Para cima" ou "Para baixo", respetivamente.  Pressione a barra do ESPAÇO para começar.",0,0,0,0,,,,,,,,,0,1,1,1,4,1,9,1,,,,,,,,,870.6467667000252,870.6467667000252,,,,,,,874.7680363000254,874.7680363000254,01,001,Miguel,2023-05-03_16h07.02.873,Motor Imagery,2022.2.5,59.80206712180891,
Imagens/left.png,Imagens/down.png,"Vais imaginar o movimento de fechar e abrir o punho direito ou esquerdo, mediante te apareça as setas "Direita" ou "Esquerda". Pressione a barra do ESPAÇO para começar.","Vais imaginar o movimento de fechar e abrir ambos os punhos ou os pés, mediante te apareçam "Para cima" ou "Para baixo", respetivamente.  Pressione a barra do ESPAÇO para começar.",0,0,0,0,,,,,,,,,0,1,1,1,5,0,10,1,,,,,,,,,878.6389769000234,878.6389769000234,,,,,,,882.6601899000234,882.6601899000234,01,001,Miguel,2023-05-03_16h07.02.873,Motor Imagery,2022.2.5,59.80206712180891,
Imagens/right.png,Imagens/up.png,"Vais fechar e abrir o punho direito ou esquerdo, mediante te apareça as setas "Direita" ou "Esquerda". Pressione a barra do ESPAÇO para começar.","Vais fechar e abrir ambos os punhos ou os pés, mediante te apareçam as setas "Para cima" ou "Para baixo", respetivamente. Pressione a barra do ESPAÇO para começar.",0,0,0,0,,,,,,,,,0,1,1,1,5,1,11,0,,,,,,,,,886.6480758999824,886.6480758999824,,,,,,,890.7878995999927,890.7878995999927,01,001,Miguel,2023-05-03_16h07.02.873,Motor Imagery,2022.2.5,59.80206712180891,
Imagens/right.png,Imagens/up.png,"Vais fechar e abrir o punho direito ou esquerdo, mediante te apareça as setas "Direita" ou "Esquerda". Pressione a barra do ESPAÇO para começar.","Vais fechar e abrir ambos os punhos ou os pés, mediante te apareçam as setas "Para cima" ou "Para baixo", respetivamente. Pressione a barra do ESPAÇO para começar.",0,0,0,0,,,,,,,,,0,1,1,1,6,0,12,0,,,,,,,,,894.6405124000157,894.6405124000157,,,,,,,898.7722645000322,898.7722645000322,01,001,Miguel,2023-05-03_16h07.02.873,Motor Imagery,2022.2.5,59.80206712180891,
Imagens/left.png,Imagens/down.png,"Vais imaginar o movimento de fechar e abrir o punho direito ou esquerdo, mediante te apareça as setas "Direita" ou "Esquerda". Pressione a barra do ESPAÇO para começar.","Vais imaginar o movimento de fechar e abrir ambos os punhos ou os pés, mediante te apareçam "Para cima" ou "Para baixo", respetivamente.  Pressione a barra do ESPAÇO para começar.",0,0,0,0,,,,,,,,,0,1,1,1,6,1,13,1,,,,,,,,,902.6332120000152,902.6332120000152,,,,,,,906.7875954000046,906.7875954000046,01,001,Miguel,2023-05-03_16h07.02.873,Motor Imagery,2022.2.5,59.80206712180891,
Imagens/left.png,Imagens/down.png,"Vais imaginar o movimento de fechar e abrir o punho direito ou esquerdo, mediante te apareça as setas "Direita" ou "Esquerda". Pressione a barra do ESPAÇO para começar.","Vais imaginar o movimento de fechar e abrir ambos os punhos ou os pés, mediante te apareçam "Para cima" ou "Para baixo", respetivamente.  Pressione a barra do ESPAÇO para começar.",0,0,0,0,,,,,,,,,0,1,1,1,7,0,14,1,,,,,,,,,910.6419251000043,910.6419251000043,,,,,,,914.6629454999929,914.6629454999929,01,001,Miguel,2023-05-03_16h07.02.873,Motor Imagery,2022.2.5,59.80206712180891,
Imagens/right.png,Imagens/up.png,"Vais fechar e abrir o punho direito ou esquerdo, mediante te apareça as setas "Direita" ou "Esquerda". Pressione a barra do ESPAÇO para começar.","Vais fechar e abrir ambos os punhos ou os pés, mediante te apareçam as setas "Para cima" ou "Para baixo", respetivamente. Pressione a barra do ESPAÇO para começar.",0,0,0,0,,,,,,,,,0,1,1,1,7,1,15,0,,,,,,,,,918.634499399981,918.634499399981,,,,,,,922.7889468999929,922.7889468999929,01,001,Miguel,2023-05-03_16h07.02.873,Motor Imagery,2022.2.5,59.80206712180891,
Imagens/left.png,Imagens/down.png,"Vais imaginar o movimento de fechar e abrir o punho direito ou esquerdo, mediante te apareça as setas "Direita" ou "Esquerda". Pressione a barra do ESPAÇO para começar.","Vais imaginar o movimento de fechar e abrir ambos os punhos ou os pés, mediante te apareçam "Para cima" ou "Para baixo", respetivamente.  Pressione a barra do ESPAÇO para começar.",0,0,0,0,,,,,,,,,0,1,1,1,8,0,16,1,,,,,,,,,926.6432957000216,926.6432957000216,,,,,,,930.7812035999959,930.7812035999959,01,001,Miguel,2023-05-03_16h07.02.873,Motor Imagery,2022.2.5,59.80206712180891,
Imagens/right.png,Imagens/up.png,"Vais fechar e abrir o punho direito ou esquerdo, mediante te apareça as setas "Direita" ou "Esquerda". Pressione a barra do ESPAÇO para começar.","Vais fechar e abrir ambos os punhos ou os pés, mediante te apareçam as setas "Para cima" ou "Para baixo", respetivamente. Pressione a barra do ESPAÇO para começar.",0,0,0,0,,,,,,,,,0,1,1,1,8,1,17,0,,,,,,,,,934.6356811000151,934.6356811000151,,,,,,,938.806974600011,938.806974600011,01,001,Miguel,2023-05-03_16h07.02.873,Motor Imagery,2022.2.5,59.80206712180891,
Imagens/left.png,Imagens/down.png,"Vais imaginar o movimento de fechar e abrir o punho direito ou esquerdo, mediante te apareça as setas "Direita" ou "Esquerda". Pressione a barra do ESPAÇO para começar.","Vais imaginar o movimento de fechar e abrir ambos os punhos ou os pés, mediante te apareçam "Para cima" ou "Para baixo", respetivamente.  Pressione a barra do ESPAÇO para começar.",0,0,0,0,,,,,,,,,0,1,1,1,9,0,18,1,,,,,,,,,942.6447832999984,942.6447832999984,,,,,,,946.7660722000292,946.7660722000292,01,001,Miguel,2023-05-03_16h07.02.873,Motor Imagery,2022.2.5,59.80206712180891,
Imagens/right.png,Imagens/up.png,"Vais fechar e abrir o punho direito ou esquerdo, mediante te apareça as setas "Direita" ou "Esquerda". Pressione a barra do ESPAÇO para começar.","Vais fechar e abrir ambos os punhos ou os pés, mediante te apareçam as setas "Para cima" ou "Para baixo", respetivamente. Pressione a barra do ESPAÇO para começar.",0,0,0,0,,,,,,,,,0,1,1,1,9,1,19,0,,,,,,,,,950.6370748000336,950.6370748000336,,,,,,,954.7915495000198,954.7915495000198,01,001,Miguel,2023-05-03_16h07.02.873,Motor Imagery,2022.2.5,59.80206712180891,
Imagens/left.png,Imagens/down.png,"Vais imaginar o movimento de fechar e abrir o punho direito ou esquerdo, mediante te apareça as setas "Direita" ou "Esquerda". Pressione a barra do ESPAÇO para começar.","Vais imaginar o movimento de fechar e abrir ambos os punhos ou os pés, mediante te apareçam "Para cima" ou "Para baixo", respetivamente.  Pressione a barra do ESPAÇO para começar.",0,0,0,0,,,,,,,,,0,1,1,1,10,0,20,1,,,,,,,,,958.646169100015,958.646169100015,,,,,,,962.7675777000259,962.7675777000259,01,001,Miguel,2023-05-03_16h07.02.873,Motor Imagery,2022.2.5,59.80206712180891,
Imagens/right.png,Imagens/up.png,"Vais fechar e abrir o punho direito ou esquerdo, mediante te apareça as setas "Direita" ou "Esquerda". Pressione a barra do ESPAÇO para começar.","Vais fechar e abrir ambos os punhos ou os pés, mediante te apareçam as setas "Para cima" ou "Para baixo", respetivamente. Pressione a barra do ESPAÇO para começar.",0,0,0,0,,,,,,,,,0,1,1,1,10,1,21,0,,,,,,,,,966.6384350000299,966.6384350000299,,,,,,,970.8100700000068,970.8100700000068,01,001,Miguel,2023-05-03_16h07.02.873,Motor Imagery,2022.2.5,59.80206712180891,
Imagens/left.png,Imagens/down.png,"Vais imaginar o movimento de fechar e abrir o punho direito ou esquerdo, mediante te apareça as setas "Direita" ou "Esquerda". Pressione a barra do ESPAÇO para começar.","Vais imaginar o movimento de fechar e abrir ambos os punhos ou os pés, mediante te apareçam "Para cima" ou "Para baixo", respetivamente.  Pressione a barra do ESPAÇO para começar.",0,0,0,0,,,,,,,,,0,1,1,1,11,0,22,1,,,,,,,,,974.6476132000098,974.6476132000098,,,,,,,978.7689822000102,978.7689822000102,01,001,Miguel,2023-05-03_16h07.02.873,Motor Imagery,2022.2.5,59.80206712180891,
Imagens/right.png,Imagens/up.png,"Vais fechar e abrir o punho direito ou esquerdo, mediante te apareça as setas "Direita" ou "Esquerda". Pressione a barra do ESPAÇO para começar.","Vais fechar e abrir ambos os punhos ou os pés, mediante te apareçam as setas "Para cima" ou "Para baixo", respetivamente. Pressione a barra do ESPAÇO para começar.",0,0,0,0,,,,,,,,,0,1,1,1,11,1,23,0,,,,,,,,,982.6399431999889,982.6399431999889,,,,,,,986.7954332000227,986.7954332000227,01,001,Miguel,2023-05-03_16h07.02.873,Motor Imagery,2022.2.5,59.80206712180891,
Imagens/right.png,Imagens/up.png,"Vais fechar e abrir o punho direito ou esquerdo, mediante te apareça as setas "Direita" ou "Esquerda". Pressione a barra do ESPAÇO para começar.","Vais fechar e abrir ambos os punhos ou os pés, mediante te apareçam as setas "Para cima" ou "Para baixo", respetivamente. Pressione a barra do ESPAÇO para começar.",0,0,0,0,,,,,,,,,0,1,1,1,12,0,24,0,,,,,,,,,990.6324013000121,990.6324013000121,,,,,,,994.7626519000041,994.7626519000041,01,001,Miguel,2023-05-03_16h07.02.873,Motor Imagery,2022.2.5,59.80206712180891,
Imagens/left.png,Imagens/down.png,"Vais imaginar o movimento de fechar e abrir o punho direito ou esquerdo, mediante te apareça as setas "Direita" ou "Esquerda". Pressione a barra do ESPAÇO para começar.","Vais imaginar o movimento de fechar e abrir ambos os punhos ou os pés, mediante te apareçam "Para cima" ou "Para baixo", respetivamente.  Pressione a barra do ESPAÇO para começar.",0,0,0,0,,,,,,,,,0,1,1,1,12,1,25,1,,,,,,,,,998.6415664000087,998.6415664000087,,,,,,,1002.7793186000199,1002.7793186000199,01,001,Miguel,2023-05-03_16h07.02.873,Motor Imagery,2022.2.5,59.80206712180891,
Imagens/left.png,Imagens/down.png,"Vais imaginar o movimento de fechar e abrir o punho direito ou esquerdo, mediante te apareça as setas "Direita" ou "Esquerda". Pressione a barra do ESPAÇO para começar.","Vais imaginar o movimento de fechar e abrir ambos os punhos ou os pés, mediante te apareçam "Para cima" ou "Para baixo", respetivamente.  Pressione a barra do ESPAÇO para começar.",0,0,0,0,,,,,,,,,0,1,1,1,13,0,26,1,,,,,,,,,1006.633720199985,1006.633720199985,,,,,,,1010.6562275000033,1010.6562275000033,01,001,Miguel,2023-05-03_16h07.02.873,Motor Imagery,2022.2.5,59.80206712180891,
Imagens/right.png,Imagens/up.png,"Vais fechar e abrir o punho direito ou esquerdo, mediante te apareça as setas "Direita" ou "Esquerda". Pressione a barra do ESPAÇO para começar.","Vais fechar e abrir ambos os punhos ou os pés, mediante te apareçam as setas "Para cima" ou "Para baixo", respetivamente. Pressione a barra do ESPAÇO para começar.",0,0,0,0,,,,,,,,,0,1,1,1,13,1,27,0,,,,,,,,,1014.6427595000132,1014.6427595000132,,,,,,,1018.8308598999865,1018.8308598999865,01,001,Miguel,2023-05-03_16h07.02.873,Motor Imagery,2022.2.5,59.80206712180891,
Imagens/left.png,Imagens/down.png,"Vais imaginar o movimento de fechar e abrir o punho direito ou esquerdo, mediante te apareça as setas "Direita" ou "Esquerda". Pressione a barra do ESPAÇO para começar.","Vais imaginar o movimento de fechar e abrir ambos os punhos ou os pés, mediante te apareçam "Para cima" ou "Para baixo", respetivamente.  Pressione a barra do ESPAÇO para começar.",0,0,0,0,,,,,,,,,0,1,1,1,14,0,28,1,,,,,,,,,1022.6351353999926,1022.6351353999926,,,,,,,1026.7732927000034,1026.7732927000034,01,001,Miguel,2023-05-03_16h07.02.873,Motor Imagery,2022.2.5,59.80206712180891,
Imagens/right.png,Imagens/up.png,"Vais fechar e abrir o punho direito ou esquerdo, mediante te apareça as setas "Direita" ou "Esquerda". Pressione a barra do ESPAÇO para começar.","Vais fechar e abrir ambos os punhos ou os pés, mediante te apareçam as setas "Para cima" ou "Para baixo", respetivamente. Pressione a barra do ESPAÇO para começar.",0,0,0,0,,,,,,,,,0,1,1,1,14,1,29,0,,,,,,,,,1030.644118600001,1030.644118600001,,,,,,,1034.798828500032,1034.798828500032,01,001,Miguel,2023-05-03_16h07.02.873,Motor Imagery,2022.2.5,59.80206712180891,
Imagens/left.png,Imagens/down.png,"Vais imaginar o movimento de fechar e abrir o punho direito ou esquerdo, mediante te apareça as setas "Direita" ou "Esquerda". Pressione a barra do ESPAÇO para começar.","Vais imaginar o movimento de fechar e abrir ambos os punhos ou os pés, mediante te apareçam "Para cima" ou "Para baixo", respetivamente.  Pressione a barra do ESPAÇO para começar.",0,0,0,0,,,,,,,,,0,1,1,1,,,,,,,,,,,,,,,,,,,,,,,01,001,Miguel,2023-05-03_16h07.02.873,Motor Imagery,2022.2.5,59.80206712180891,
,,,,0,0,0,0,,,,,,,,,,,,,,,,,,,,,,,,,,,,,,,,,,,01,001,Miguel,2023-05-03_16h07.02.873,Motor Imagery,2022.2.5,59.80206712180891,
Imagens/right.png,Imagens/up.png,"Vais fechar e abrir o punho direito ou esquerdo, mediante te apareça as setas "Direita" ou "Esquerda". Pressione a barra do ESPAÇO para começar.","Vais fechar e abrir ambos os punhos ou os pés, mediante te apareçam as setas "Para cima" ou "Para baixo", respetivamente. Pressione a barra do ESPAÇO para começar.",1,0,1,0,0,0,0,0,0,0,0,0,,,,,,,,,,,1038.6534889999893,1038.6534889999893,space,33.91910930001177,1072.5916960000177,1073.592603099998,1073.592603099998,1073.592603099998,1077.7140483999974,1077.7140483999974,,,,,,,01,001,Miguel,2023-05-03_16h07.02.873,Motor Imagery,2022.2.5,59.80206712180891,
Imagens/left.png,Imagens/down.png,"Vais imaginar o movimento de fechar e abrir o punho direito ou esquerdo, mediante te apareça as setas "Direita" ou "Esquerda". Pressione a barra do ESPAÇO para começar.","Vais imaginar o movimento de fechar e abrir ambos os punhos ou os pés, mediante te apareçam "Para cima" ou "Para baixo", respetivamente.  Pressione a barra do ESPAÇO para começar.",1,0,1,0,0,0,0,0,0,1,1,1,,,,,,,,,,,,,,,,,1081.6017073999974,1081.6017073999974,1085.8065561000258,1085.8065561000258,,,,,,,01,001,Miguel,2023-05-03_16h07.02.873,Motor Imagery,2022.2.5,59.80206712180891,
Imagens/right.png,Imagens/up.png,"Vais fechar e abrir o punho direito ou esquerdo, mediante te apareça as setas "Direita" ou "Esquerda". Pressione a barra do ESPAÇO para começar.","Vais fechar e abrir ambos os punhos ou os pés, mediante te apareçam as setas "Para cima" ou "Para baixo", respetivamente. Pressione a barra do ESPAÇO para começar.",1,0,1,0,0,0,0,0,1,0,2,0,,,,,,,,,,,,,,,,,1089.5941775999963,1089.5941775999963,1093.7154884000192,1093.7154884000192,,,,,,,01,001,Miguel,2023-05-03_16h07.02.873,Motor Imagery,2022.2.5,59.80206712180891,
Imagens/left.png,Imagens/down.png,"Vais imaginar o movimento de fechar e abrir o punho direito ou esquerdo, mediante te apareça as setas "Direita" ou "Esquerda". Pressione a barra do ESPAÇO para começar.","Vais imaginar o movimento de fechar e abrir ambos os punhos ou os pés, mediante te apareçam "Para cima" ou "Para baixo", respetivamente.  Pressione a barra do ESPAÇO para começar.",1,0,1,0,0,0,0,0,1,1,3,1,,,,,,,,,,,,,,,,,1097.6033723999863,1097.6033723999863,1101.8247954000253,1101.8247954000253,,,,,,,01,001,Miguel,2023-05-03_16h07.02.873,Motor Imagery,2022.2.5,59.80206712180891,
Imagens/right.png,Imagens/up.png,"Vais fechar e abrir o punho direito ou esquerdo, mediante te apareça as setas "Direita" ou "Esquerda". Pressione a barra do ESPAÇO para começar.","Vais fechar e abrir ambos os punhos ou os pés, mediante te apareçam as setas "Para cima" ou "Para baixo", respetivamente. Pressione a barra do ESPAÇO para começar.",1,0,1,0,0,0,0,0,2,0,4,0,,,,,,,,,,,,,,,,,1105.5956504999776,1105.5956504999776,1109.7170024000225,1109.7170024000225,,,,,,,01,001,Miguel,2023-05-03_16h07.02.873,Motor Imagery,2022.2.5,59.80206712180891,
Imagens/left.png,Imagens/down.png,"Vais imaginar o movimento de fechar e abrir o punho direito ou esquerdo, mediante te apareça as setas "Direita" ou "Esquerda". Pressione a barra do ESPAÇO para começar.","Vais imaginar o movimento de fechar e abrir ambos os punhos ou os pés, mediante te apareçam "Para cima" ou "Para baixo", respetivamente.  Pressione a barra do ESPAÇO para começar.",1,0,1,0,0,0,0,0,2,1,5,1,,,,,,,,,,,,,,,,,1113.6047077000258,1113.6047077000258,1117.8095292000216,1117.8095292000216,,,,,,,01,001,Miguel,2023-05-03_16h07.02.873,Motor Imagery,2022.2.5,59.80206712180891,
Imagens/right.png,Imagens/up.png,"Vais fechar e abrir o punho direito ou esquerdo, mediante te apareça as setas "Direita" ou "Esquerda". Pressione a barra do ESPAÇO para começar.","Vais fechar e abrir ambos os punhos ou os pés, mediante te apareçam as setas "Para cima" ou "Para baixo", respetivamente. Pressione a barra do ESPAÇO para começar.",1,0,1,0,0,0,0,0,3,0,6,0,,,,,,,,,,,,,,,,,1121.5969720000285,1121.5969720000285,1125.718287900032,1125.718287900032,,,,,,,01,001,Miguel,2023-05-03_16h07.02.873,Motor Imagery,2022.2.5,59.80206712180891,
Imagens/left.png,Imagens/down.png,"Vais imaginar o movimento de fechar e abrir o punho direito ou esquerdo, mediante te apareça as setas "Direita" ou "Esquerda". Pressione a barra do ESPAÇO para começar.","Vais imaginar o movimento de fechar e abrir ambos os punhos ou os pés, mediante te apareçam "Para cima" ou "Para baixo", respetivamente.  Pressione a barra do ESPAÇO para começar.",1,0,1,0,0,0,0,0,3,1,7,1,,,,,,,,,,,,,,,,,1129.6061513000168,1129.6061513000168,1133.794180100027,1133.794180100027,,,,,,,01,001,Miguel,2023-05-03_16h07.02.873,Motor Imagery,2022.2.5,59.80206712180891,
Imagens/left.png,Imagens/down.png,"Vais imaginar o movimento de fechar e abrir o punho direito ou esquerdo, mediante te apareça as setas "Direita" ou "Esquerda". Pressione a barra do ESPAÇO para começar.","Vais imaginar o movimento de fechar e abrir ambos os punhos ou os pés, mediante te apareçam "Para cima" ou "Para baixo", respetivamente.  Pressione a barra do ESPAÇO para começar.",1,0,1,0,0,0,0,0,4,0,8,1,,,,,,,,,,,,,,,,,1137.5984196999925,1137.5984196999925,1141.7921908000135,1141.7921908000135,,,,,,,01,001,Miguel,2023-05-03_16h07.02.873,Motor Imagery,2022.2.5,59.80206712180891,
Imagens/right.png,Imagens/up.png,"Vais fechar e abrir o punho direito ou esquerdo, mediante te apareça as setas "Direita" ou "Esquerda". Pressione a barra do ESPAÇO para começar.","Vais fechar e abrir ambos os punhos ou os pés, mediante te apareçam as setas "Para cima" ou "Para baixo", respetivamente. Pressione a barra do ESPAÇO para começar.",1,0,1,0,0,0,0,0,4,1,9,0,,,,,,,,,,,,,,,,,1145.6075968000223,1145.6075968000223,1149.7121068999986,1149.7121068999986,,,,,,,01,001,Miguel,2023-05-03_16h07.02.873,Motor Imagery,2022.2.5,59.80206712180891,
Imagens/left.png,Imagens/down.png,"Vais imaginar o movimento de fechar e abrir o punho direito ou esquerdo, mediante te apareça as setas "Direita" ou "Esquerda". Pressione a barra do ESPAÇO para começar.","Vais imaginar o movimento de fechar e abrir ambos os punhos ou os pés, mediante te apareçam "Para cima" ou "Para baixo", respetivamente.  Pressione a barra do ESPAÇO para começar.",1,0,1,0,0,0,0,0,5,0,10,1,,,,,,,,,,,,,,,,,1153.599773199996,1153.599773199996,1157.8212677999982,1157.8212677999982,,,,,,,01,001,Miguel,2023-05-03_16h07.02.873,Motor Imagery,2022.2.5,59.80206712180891,
Imagens/right.png,Imagens/up.png,"Vais fechar e abrir o punho direito ou esquerdo, mediante te apareça as setas "Direita" ou "Esquerda". Pressione a barra do ESPAÇO para começar.","Vais fechar e abrir ambos os punhos ou os pés, mediante te apareçam as setas "Para cima" ou "Para baixo", respetivamente. Pressione a barra do ESPAÇO para começar.",1,0,1,0,0,0,0,0,5,1,11,0,,,,,,,,,,,,,,,,,1161.608867599978,1161.608867599978,1165.7134811999858,1165.7134811999858,,,,,,,01,001,Miguel,2023-05-03_16h07.02.873,Motor Imagery,2022.2.5,59.80206712180891,
Imagens/right.png,Imagens/up.png,"Vais fechar e abrir o punho direito ou esquerdo, mediante te apareça as setas "Direita" ou "Esquerda". Pressione a barra do ESPAÇO para começar.","Vais fechar e abrir ambos os punhos ou os pés, mediante te apareçam as setas "Para cima" ou "Para baixo", respetivamente. Pressione a barra do ESPAÇO para começar.",1,0,1,0,0,0,0,0,6,0,12,0,,,,,,,,,,,,,,,,,1169.601427400019,1169.601427400019,1173.6224679999868,1173.6224679999868,,,,,,,01,001,Miguel,2023-05-03_16h07.02.873,Motor Imagery,2022.2.5,59.80206712180891,
Imagens/left.png,Imagens/down.png,"Vais imaginar o movimento de fechar e abrir o punho direito ou esquerdo, mediante te apareça as setas "Direita" ou "Esquerda". Pressione a barra do ESPAÇO para começar.","Vais imaginar o movimento de fechar e abrir ambos os punhos ou os pés, mediante te apareçam "Para cima" ou "Para baixo", respetivamente.  Pressione a barra do ESPAÇO para começar.",1,0,1,0,0,0,0,0,6,1,13,1,,,,,,,,,,,,,,,,,1177.5936957999947,1177.5936957999947,1181.7984073000262,1181.7984073000262,,,,,,,01,001,Miguel,2023-05-03_16h07.02.873,Motor Imagery,2022.2.5,59.80206712180891,
Imagens/right.png,Imagens/up.png,"Vais fechar e abrir o punho direito ou esquerdo, mediante te apareça as setas "Direita" ou "Esquerda". Pressione a barra do ESPAÇO para começar.","Vais fechar e abrir ambos os punhos ou os pés, mediante te apareçam as setas "Para cima" ou "Para baixo", respetivamente. Pressione a barra do ESPAÇO para começar.",1,0,1,0,0,0,0,0,7,0,14,0,,,,,,,,,,,,,,,,,1185.6026386999874,1185.6026386999874,1189.7239407000015,1189.7239407000015,,,,,,,01,001,Miguel,2023-05-03_16h07.02.873,Motor Imagery,2022.2.5,59.80206712180891,
Imagens/left.png,Imagens/down.png,"Vais imaginar o movimento de fechar e abrir o punho direito ou esquerdo, mediante te apareça as setas "Direita" ou "Esquerda". Pressione a barra do ESPAÇO para começar.","Vais imaginar o movimento de fechar e abrir ambos os punhos ou os pés, mediante te apareçam "Para cima" ou "Para baixo", respetivamente.  Pressione a barra do ESPAÇO para começar.",1,0,1,0,0,0,0,0,7,1,15,1,,,,,,,,,,,,,,,,,1193.595053200028,1193.595053200028,1197.7998622999876,1197.7998622999876,,,,,,,01,001,Miguel,2023-05-03_16h07.02.873,Motor Imagery,2022.2.5,59.80206712180891,
Imagens/left.png,Imagens/down.png,"Vais imaginar o movimento de fechar e abrir o punho direito ou esquerdo, mediante te apareça as setas "Direita" ou "Esquerda". Pressione a barra do ESPAÇO para começar.","Vais imaginar o movimento de fechar e abrir ambos os punhos ou os pés, mediante te apareçam "Para cima" ou "Para baixo", respetivamente.  Pressione a barra do ESPAÇO para começar.",1,0,1,0,0,0,0,0,8,0,16,1,,,,,,,,,,,,,,,,,1201.6040902999812,1201.6040902999812,1205.7752486999962,1205.7752486999962,,,,,,,01,001,Miguel,2023-05-03_16h07.02.873,Motor Imagery,2022.2.5,59.80206712180891,
Imagens/right.png,Imagens/up.png,"Vais fechar e abrir o punho direito ou esquerdo, mediante te apareça as setas "Direita" ou "Esquerda". Pressione a barra do ESPAÇO para começar.","Vais fechar e abrir ambos os punhos ou os pés, mediante te apareçam as setas "Para cima" ou "Para baixo", respetivamente. Pressione a barra do ESPAÇO para começar.",1,0,1,0,0,0,0,0,8,1,17,0,,,,,,,,,,,,,,,,,1209.5964404999977,1209.5964404999977,1213.7178556,1213.7178556,,,,,,,01,001,Miguel,2023-05-03_16h07.02.873,Motor Imagery,2022.2.5,59.80206712180891,
Imagens/right.png,Imagens/up.png,"Vais fechar e abrir o punho direito ou esquerdo, mediante te apareça as setas "Direita" ou "Esquerda". Pressione a barra do ESPAÇO para começar.","Vais fechar e abrir ambos os punhos ou os pés, mediante te apareçam as setas "Para cima" ou "Para baixo", respetivamente. Pressione a barra do ESPAÇO para começar.",1,0,1,0,0,0,0,0,9,0,18,0,,,,,,,,,,,,,,,,,1217.6056799999787,1217.6056799999787,1221.6100346000167,1221.6100346000167,,,,,,,01,001,Miguel,2023-05-03_16h07.02.873,Motor Imagery,2022.2.5,59.80206712180891,
Imagens/left.png,Imagens/down.png,"Vais imaginar o movimento de fechar e abrir o punho direito ou esquerdo, mediante te apareça as setas "Direita" ou "Esquerda". Pressione a barra do ESPAÇO para começar.","Vais imaginar o movimento de fechar e abrir ambos os punhos ou os pés, mediante te apareçam "Para cima" ou "Para baixo", respetivamente.  Pressione a barra do ESPAÇO para começar.",1,0,1,0,0,0,0,0,9,1,19,1,,,,,,,,,,,,,,,,,1225.5979157999973,1225.5979157999973,1229.8025069999858,1229.8025069999858,,,,,,,01,001,Miguel,2023-05-03_16h07.02.873,Motor Imagery,2022.2.5,59.80206712180891,
Imagens/left.png,Imagens/down.png,"Vais imaginar o movimento de fechar e abrir o punho direito ou esquerdo, mediante te apareça as setas "Direita" ou "Esquerda". Pressione a barra do ESPAÇO para começar.","Vais imaginar o movimento de fechar e abrir ambos os punhos ou os pés, mediante te apareçam "Para cima" ou "Para baixo", respetivamente.  Pressione a barra do ESPAÇO para começar.",1,0,1,0,0,0,0,0,10,0,20,1,,,,,,,,,,,,,,,,,1233.6071274999995,1233.6071274999995,1237.8633113999967,1237.8633113999967,,,,,,,01,001,Miguel,2023-05-03_16h07.02.873,Motor Imagery,2022.2.5,59.80206712180891,
Imagens/right.png,Imagens/up.png,"Vais fechar e abrir o punho direito ou esquerdo, mediante te apareça as setas "Direita" ou "Esquerda". Pressione a barra do ESPAÇO para começar.","Vais fechar e abrir ambos os punhos ou os pés, mediante te apareçam as setas "Para cima" ou "Para baixo", respetivamente. Pressione a barra do ESPAÇO para começar.",1,0,1,0,0,0,0,0,10,1,21,0,,,,,,,,,,,,,,,,,1241.5993167000124,1241.5993167000124,1245.7206472000107,1245.7206472000107,,,,,,,01,001,Miguel,2023-05-03_16h07.02.873,Motor Imagery,2022.2.5,59.80206712180891,
Imagens/right.png,Imagens/up.png,"Vais fechar e abrir o punho direito ou esquerdo, mediante te apareça as setas "Direita" ou "Esquerda". Pressione a barra do ESPAÇO para começar.","Vais fechar e abrir ambos os punhos ou os pés, mediante te apareçam as setas "Para cima" ou "Para baixo", respetivamente. Pressione a barra do ESPAÇO para começar.",1,0,1,0,0,0,0,0,11,0,22,0,,,,,,,,,,,,,,,,,1249.6083543000277,1249.6083543000277,1253.6128236000077,1253.6128236000077,,,,,,,01,001,Miguel,2023-05-03_16h07.02.873,Motor Imagery,2022.2.5,59.80206712180891,
Imagens/left.png,Imagens/down.png,"Vais imaginar o movimento de fechar e abrir o punho direito ou esquerdo, mediante te apareça as setas "Direita" ou "Esquerda". Pressione a barra do ESPAÇO para começar.","Vais imaginar o movimento de fechar e abrir ambos os punhos ou os pés, mediante te apareçam "Para cima" ou "Para baixo", respetivamente.  Pressione a barra do ESPAÇO para começar.",1,0,1,0,0,0,0,0,11,1,23,1,,,,,,,,,,,,,,,,,1257.6007107000332,1257.6007107000332,1261.822196300025,1261.822196300025,,,,,,,01,001,Miguel,2023-05-03_16h07.02.873,Motor Imagery,2022.2.5,59.80206712180891,
Imagens/right.png,Imagens/up.png,"Vais fechar e abrir o punho direito ou esquerdo, mediante te apareça as setas "Direita" ou "Esquerda". Pressione a barra do ESPAÇO para começar.","Vais fechar e abrir ambos os punhos ou os pés, mediante te apareçam as setas "Para cima" ou "Para baixo", respetivamente. Pressione a barra do ESPAÇO para começar.",1,0,1,0,0,0,0,0,12,0,24,0,,,,,,,,,,,,,,,,,1265.5930538999964,1265.5930538999964,1269.7145249000168,1269.7145249000168,,,,,,,01,001,Miguel,2023-05-03_16h07.02.873,Motor Imagery,2022.2.5,59.80206712180891,
Imagens/left.png,Imagens/down.png,"Vais imaginar o movimento de fechar e abrir o punho direito ou esquerdo, mediante te apareça as setas "Direita" ou "Esquerda". Pressione a barra do ESPAÇO para começar.","Vais imaginar o movimento de fechar e abrir ambos os punhos ou os pés, mediante te apareçam "Para cima" ou "Para baixo", respetivamente.  Pressione a barra do ESPAÇO para começar.",1,0,1,0,0,0,0,0,12,1,25,1,,,,,,,,,,,,,,,,,1273.6019797000336,1273.6019797000336,1277.8069219000172,1277.8069219000172,,,,,,,01,001,Miguel,2023-05-03_16h07.02.873,Motor Imagery,2022.2.5,59.80206712180891,
Imagens/right.png,Imagens/up.png,"Vais fechar e abrir o punho direito ou esquerdo, mediante te apareça as setas "Direita" ou "Esquerda". Pressione a barra do ESPAÇO para começar.","Vais fechar e abrir ambos os punhos ou os pés, mediante te apareçam as setas "Para cima" ou "Para baixo", respetivamente. Pressione a barra do ESPAÇO para começar.",1,0,1,0,0,0,0,0,13,0,26,0,,,,,,,,,,,,,,,,,1281.5944557000184,1281.5944557000184,1285.715867699997,1285.715867699997,,,,,,,01,001,Miguel,2023-05-03_16h07.02.873,Motor Imagery,2022.2.5,59.80206712180891,
Imagens/left.png,Imagens/down.png,"Vais imaginar o movimento de fechar e abrir o punho direito ou esquerdo, mediante te apareça as setas "Direita" ou "Esquerda". Pressione a barra do ESPAÇO para começar.","Vais imaginar o movimento de fechar e abrir ambos os punhos ou os pés, mediante te apareçam "Para cima" ou "Para baixo", respetivamente.  Pressione a barra do ESPAÇO para começar.",1,0,1,0,0,0,0,0,13,1,27,1,,,,,,,,,,,,,,,,,1289.603971900011,1289.603971900011,1293.8916713999934,1293.8916713999934,,,,,,,01,001,Miguel,2023-05-03_16h07.02.873,Motor Imagery,2022.2.5,59.80206712180891,
Imagens/left.png,Imagens/down.png,"Vais imaginar o movimento de fechar e abrir o punho direito ou esquerdo, mediante te apareça as setas "Direita" ou "Esquerda". Pressione a barra do ESPAÇO para começar.","Vais imaginar o movimento de fechar e abrir ambos os punhos ou os pés, mediante te apareçam "Para cima" ou "Para baixo", respetivamente.  Pressione a barra do ESPAÇO para começar.",1,0,1,0,0,0,0,0,14,0,28,1,,,,,,,,,,,,,,,,,1297.5958383000107,1297.5958383000107,1301.7680583000183,1301.7680583000183,,,,,,,01,001,Miguel,2023-05-03_16h07.02.873,Motor Imagery,2022.2.5,59.80206712180891,
Imagens/right.png,Imagens/up.png,"Vais fechar e abrir o punho direito ou esquerdo, mediante te apareça as setas "Direita" ou "Esquerda". Pressione a barra do ESPAÇO para começar.","Vais fechar e abrir ambos os punhos ou os pés, mediante te apareçam as setas "Para cima" ou "Para baixo", respetivamente. Pressione a barra do ESPAÇO para começar.",1,0,1,0,0,0,0,0,14,1,29,0,,,,,,,,,,,,,,,,,1305.6049660000135,1305.6049660000135,1309.7263117000111,1309.7263117000111,,,,,,,01,001,Miguel,2023-05-03_16h07.02.873,Motor Imagery,2022.2.5,59.80206712180891,
Imagens/right.png,Imagens/up.png,"Vais fechar e abrir o punho direito ou esquerdo, mediante te apareça as setas "Direita" ou "Esquerda". Pressione a barra do ESPAÇO para começar.","Vais fechar e abrir ambos os punhos ou os pés, mediante te apareçam as setas "Para cima" ou "Para baixo", respetivamente. Pressione a barra do ESPAÇO para começar.",1,0,1,0,0,0,0,0,,,,,,,,,,,,,,,,,,,,,,,,,,,,,,,01,001,Miguel,2023-05-03_16h07.02.873,Motor Imagery,2022.2.5,59.80206712180891,
Imagens/left.png,Imagens/down.png,"Vais imaginar o movimento de fechar e abrir o punho direito ou esquerdo, mediante te apareça as setas "Direita" ou "Esquerda". Pressione a barra do ESPAÇO para começar.","Vais imaginar o movimento de fechar e abrir ambos os punhos ou os pés, mediante te apareçam "Para cima" ou "Para baixo", respetivamente.  Pressione a barra do ESPAÇO para começar.",1,0,1,0,0,1,1,1,0,0,0,1,,,,,,,,,,,1313.6005736999796,1313.6005736999796,space,8.083608299959451,1321.7066410999978,1322.7077037999989,1322.7077037999989,1322.7077037999989,1326.9123898000107,1326.9123898000107,,,,,,,01,001,Miguel,2023-05-03_16h07.02.873,Motor Imagery,2022.2.5,59.80206712180891,
Imagens/right.png,Imagens/up.png,"Vais fechar e abrir o punho direito ou esquerdo, mediante te apareça as setas "Direita" ou "Esquerda". Pressione a barra do ESPAÇO para começar.","Vais fechar e abrir ambos os punhos ou os pés, mediante te apareçam as setas "Para cima" ou "Para baixo", respetivamente. Pressione a barra do ESPAÇO para começar.",1,0,1,0,0,1,1,1,0,1,1,0,,,,,,,,,,,,,,,,,1330.716644500033,1330.716644500033,1334.8379141000332,1334.8379141000332,,,,,,,01,001,Miguel,2023-05-03_16h07.02.873,Motor Imagery,2022.2.5,59.80206712180891,
Imagens/right.png,Imagens/up.png,"Vais fechar e abrir o punho direito ou esquerdo, mediante te apareça as setas "Direita" ou "Esquerda". Pressione a barra do ESPAÇO para começar.","Vais fechar e abrir ambos os punhos ou os pés, mediante te apareçam as setas "Para cima" ou "Para baixo", respetivamente. Pressione a barra do ESPAÇO para começar.",1,0,1,0,0,1,1,1,1,0,2,0,,,,,,,,,,,,,,,,,1338.709131199983,1338.709131199983,1342.7302672999795,1342.7302672999795,,,,,,,01,001,Miguel,2023-05-03_16h07.02.873,Motor Imagery,2022.2.5,59.80206712180891,
Imagens/left.png,Imagens/down.png,"Vais imaginar o movimento de fechar e abrir o punho direito ou esquerdo, mediante te apareça as setas "Direita" ou "Esquerda". Pressione a barra do ESPAÇO para começar.","Vais imaginar o movimento de fechar e abrir ambos os punhos ou os pés, mediante te apareçam "Para cima" ou "Para baixo", respetivamente.  Pressione a barra do ESPAÇO para começar.",1,0,1,0,0,1,1,1,1,1,3,1,,,,,,,,,,,,,,,,,1346.7180929000024,1346.7180929000024,1350.922921099991,1350.922921099991,,,,,,,01,001,Miguel,2023-05-03_16h07.02.873,Motor Imagery,2022.2.5,59.80206712180891,
Imagens/left.png,Imagens/down.png,"Vais imaginar o movimento de fechar e abrir o punho direito ou esquerdo, mediante te apareça as setas "Direita" ou "Esquerda". Pressione a barra do ESPAÇO para começar.","Vais imaginar o movimento de fechar e abrir ambos os punhos ou os pés, mediante te apareçam "Para cima" ou "Para baixo", respetivamente.  Pressione a barra do ESPAÇO para começar.",1,0,1,0,0,1,1,1,2,0,4,1,,,,,,,,,,,,,,,,,1354.7104871000047,1354.7104871000047,1358.8836377999978,1358.8836377999978,,,,,,,01,001,Miguel,2023-05-03_16h07.02.873,Motor Imagery,2022.2.5,59.80206712180891,
Imagens/right.png,Imagens/up.png,"Vais fechar e abrir o punho direito ou esquerdo, mediante te apareça as setas "Direita" ou "Esquerda". Pressione a barra do ESPAÇO para começar.","Vais fechar e abrir ambos os punhos ou os pés, mediante te apareçam as setas "Para cima" ou "Para baixo", respetivamente. Pressione a barra do ESPAÇO para começar.",1,0,1,0,0,1,1,1,2,1,5,0,,,,,,,,,,,,,,,,,1362.7195302000036,1362.7195302000036,1366.841004499991,1366.841004499991,,,,,,,01,001,Miguel,2023-05-03_16h07.02.873,Motor Imagery,2022.2.5,59.80206712180891,
Imagens/right.png,Imagens/up.png,"Vais fechar e abrir o punho direito ou esquerdo, mediante te apareça as setas "Direita" ou "Esquerda". Pressione a barra do ESPAÇO para começar.","Vais fechar e abrir ambos os punhos ou os pés, mediante te apareçam as setas "Para cima" ou "Para baixo", respetivamente. Pressione a barra do ESPAÇO para começar.",1,0,1,0,0,1,1,1,3,0,6,0,,,,,,,,,,,,,,,,,1370.7119094000082,1370.7119094000082,1374.733072300034,1374.733072300034,,,,,,,01,001,Miguel,2023-05-03_16h07.02.873,Motor Imagery,2022.2.5,59.80206712180891,
Imagens/left.png,Imagens/down.png,"Vais imaginar o movimento de fechar e abrir o punho direito ou esquerdo, mediante te apareça as setas "Direita" ou "Esquerda". Pressione a barra do ESPAÇO para começar.","Vais imaginar o movimento de fechar e abrir ambos os punhos ou os pés, mediante te apareçam "Para cima" ou "Para baixo", respetivamente.  Pressione a barra do ESPAÇO para começar.",1,0,1,0,0,1,1,1,3,1,7,1,,,,,,,,,,,,,,,,,1378.720909900032,1378.720909900032,1382.9089843999827,1382.9089843999827,,,,,,,01,001,Miguel,2023-05-03_16h07.02.873,Motor Imagery,2022.2.5,59.80206712180891,
Imagens/left.png,Imagens/down.png,"Vais imaginar o movimento de fechar e abrir o punho direito ou esquerdo, mediante te apareça as setas "Direita" ou "Esquerda". Pressione a barra do ESPAÇO para começar.","Vais imaginar o movimento de fechar e abrir ambos os punhos ou os pés, mediante te apareçam "Para cima" ou "Para baixo", respetivamente.  Pressione a barra do ESPAÇO para começar.",1,0,1,0,0,1,1,1,4,0,8,1,,,,,,,,,,,,,,,,,1386.713296300033,1386.713296300033,1390.8880504000117,1390.8880504000117,,,,,,,01,001,Miguel,2023-05-03_16h07.02.873,Motor Imagery,2022.2.5,59.80206712180891,
Imagens/right.png,Imagens/up.png,"Vais fechar e abrir o punho direito ou esquerdo, mediante te apareça as setas "Direita" ou "Esquerda". Pressione a barra do ESPAÇO para começar.","Vais fechar e abrir ambos os punhos ou os pés, mediante te apareçam as setas "Para cima" ou "Para baixo", respetivamente. Pressione a barra do ESPAÇO para começar.",1,0,1,0,0,1,1,1,4,1,9,0,,,,,,,,,,,,,,,,,1394.7224623999791,1394.7224623999791,1398.827037799987,1398.827037799987,,,,,,,01,001,Miguel,2023-05-03_16h07.02.873,Motor Imagery,2022.2.5,59.80206712180891,
Imagens/left.png,Imagens/down.png,"Vais imaginar o movimento de fechar e abrir o punho direito ou esquerdo, mediante te apareça as setas "Direita" ou "Esquerda". Pressione a barra do ESPAÇO para começar.","Vais imaginar o movimento de fechar e abrir ambos os punhos ou os pés, mediante te apareçam "Para cima" ou "Para baixo", respetivamente.  Pressione a barra do ESPAÇO para começar.",1,0,1,0,0,1,1,1,5,0,10,1,,,,,,,,,,,,,,,,,1402.7146549000172,1402.7146549000172,1406.919537800015,1406.919537800015,,,,,,,01,001,Miguel,2023-05-03_16h07.02.873,Motor Imagery,2022.2.5,59.80206712180891,
Imagens/right.png,Imagens/up.png,"Vais fechar e abrir o punho direito ou esquerdo, mediante te apareça as setas "Direita" ou "Esquerda". Pressione a barra do ESPAÇO para começar.","Vais fechar e abrir ambos os punhos ou os pés, mediante te apareçam as setas "Para cima" ou "Para baixo", respetivamente. Pressione a barra do ESPAÇO para começar.",1,0,1,0,0,1,1,1,5,1,11,0,,,,,,,,,,,,,,,,,1410.7238626999897,1410.7238626999897,1414.828389500035,1414.828389500035,,,,,,,01,001,Miguel,2023-05-03_16h07.02.873,Motor Imagery,2022.2.5,59.80206712180891,
Imagens/right.png,Imagens/up.png,"Vais fechar e abrir o punho direito ou esquerdo, mediante te apareça as setas "Direita" ou "Esquerda". Pressione a barra do ESPAÇO para começar.","Vais fechar e abrir ambos os punhos ou os pés, mediante te apareçam as setas "Para cima" ou "Para baixo", respetivamente. Pressione a barra do ESPAÇO para começar.",1,0,1,0,0,1,1,1,6,0,12,0,,,,,,,,,,,,,,,,,1418.7164411999984,1418.7164411999984,1422.7372750000213,1422.7372750000213,,,,,,,01,001,Miguel,2023-05-03_16h07.02.873,Motor Imagery,2022.2.5,59.80206712180891,
Imagens/left.png,Imagens/down.png,"Vais imaginar o movimento de fechar e abrir o punho direito ou esquerdo, mediante te apareça as setas "Direita" ou "Esquerda". Pressione a barra do ESPAÇO para começar.","Vais imaginar o movimento de fechar e abrir ambos os punhos ou os pés, mediante te apareçam "Para cima" ou "Para baixo", respetivamente.  Pressione a barra do ESPAÇO para começar.",1,0,1,0,0,1,1,1,6,1,13,1,,,,,,,,,,,,,,,,,1426.708409600018,1426.708409600018,1430.9299500000197,1430.9299500000197,,,,,,,01,001,Miguel,2023-05-03_16h07.02.873,Motor Imagery,2022.2.5,59.80206712180891,
Imagens/left.png,Imagens/down.png,"Vais imaginar o movimento de fechar e abrir o punho direito ou esquerdo, mediante te apareça as setas "Direita" ou "Esquerda". Pressione a barra do ESPAÇO para começar.","Vais imaginar o movimento de fechar e abrir ambos os punhos ou os pés, mediante te apareçam "Para cima" ou "Para baixo", respetivamente.  Pressione a barra do ESPAÇO para começar.",1,0,1,0,0,1,1,1,7,0,14,1,,,,,,,,,,,,,,,,,1434.7175567999948,1434.7175567999948,1438.8915235000313,1438.8915235000313,,,,,,,01,001,Miguel,2023-05-03_16h07.02.873,Motor Imagery,2022.2.5,59.80206712180891,
Imagens/right.png,Imagens/up.png,"Vais fechar e abrir o punho direito ou esquerdo, mediante te apareça as setas "Direita" ou "Esquerda". Pressione a barra do ESPAÇO para começar.","Vais fechar e abrir ambos os punhos ou os pés, mediante te apareçam as setas "Para cima" ou "Para baixo", respetivamente. Pressione a barra do ESPAÇO para começar.",1,0,1,0,0,1,1,1,7,1,15,0,,,,,,,,,,,,,,,,,1442.7100922000245,1442.7100922000245,1446.831231500022,1446.831231500022,,,,,,,01,001,Miguel,2023-05-03_16h07.02.873,Motor Imagery,2022.2.5,59.80206712180891,
Imagens/right.png,Imagens/up.png,"Vais fechar e abrir o punho direito ou esquerdo, mediante te apareça as setas "Direita" ou "Esquerda". Pressione a barra do ESPAÇO para começar.","Vais fechar e abrir ambos os punhos ou os pés, mediante te apareçam as setas "Para cima" ou "Para baixo", respetivamente. Pressione a barra do ESPAÇO para começar.",1,0,1,0,0,1,1,1,8,0,16,0,,,,,,,,,,,,,,,,,1450.7189070000313,1450.7189070000313,1454.7401906999876,1454.7401906999876,,,,,,,01,001,Miguel,2023-05-03_16h07.02.873,Motor Imagery,2022.2.5,59.80206712180891,
Imagens/left.png,Imagens/down.png,"Vais imaginar o movimento de fechar e abrir o punho direito ou esquerdo, mediante te apareça as setas "Direita" ou "Esquerda". Pressione a barra do ESPAÇO para começar.","Vais imaginar o movimento de fechar e abrir ambos os punhos ou os pés, mediante te apareçam "Para cima" ou "Para baixo", respetivamente.  Pressione a barra do ESPAÇO para começar.",1,0,1,0,0,1,1,1,8,1,17,1,,,,,,,,,,,,,,,,,1458.71131340001,1458.71131340001,1462.9161023999914,1462.9161023999914,,,,,,,01,001,Miguel,2023-05-03_16h07.02.873,Motor Imagery,2022.2.5,59.80206712180891,
Imagens/right.png,Imagens/up.png,"Vais fechar e abrir o punho direito ou esquerdo, mediante te apareça as setas "Direita" ou "Esquerda". Pressione a barra do ESPAÇO para começar.","Vais fechar e abrir ambos os punhos ou os pés, mediante te apareçam as setas "Para cima" ou "Para baixo", respetivamente. Pressione a barra do ESPAÇO para começar.",1,0,1,0,0,1,1,1,9,0,18,0,,,,,,,,,,,,,,,,,1466.7204373999848,1466.7204373999848,1470.8251812999952,1470.8251812999952,,,,,,,01,001,Miguel,2023-05-03_16h07.02.873,Motor Imagery,2022.2.5,59.80206712180891,
